Ax,Ay,Az,Gx,Gy,Gz,Mx,My,MZ,Roll,Pitch,Yaw,Time
0.32,1.02,-0.04,1.59,-14.11,1.49,-24.02,-16.11,-21.09,1.26,-0.31,-2.36,0.0004
0.37,1.01,-0.01,2.39,13.14,10.83,-24.02,-15.82,-21.97,1.22,-0.35,-2.36,0.0008
0.42,0.97,0.05,2.3,-3.23,3.47,-24.32,-16.11,-21.68,1.16,-0.41,-2.33,0.001
0.39,0.97,0.03,2.86,-5.91,3.11,-24.02,-15.82,-21.97,1.19,-0.38,-2.35,0.0012
0.39,0.99,0.01,1.89,-0.07,5.19,-23.44,-16.41,-21.39,1.2,-0.37,-2.32,0.0014
0.43,0.98,0.0,2.09,-0.86,3.51,-23.44,-16.11,-21.97,1.15,-0.42,-2.32,0.0016
0.42,0.99,0.02,1.95,-7.8,-1.06,-24.32,-15.82,-22.27,1.17,-0.4,-2.34,0.0018
0.42,0.97,0.02,2.09,-4.36,0.11,-24.61,-16.7,-21.68,1.16,-0.41,-2.31,0.002
0.41,0.97,0.02,2.4,0.4,2.13,-24.32,-16.41,-22.56,1.17,-0.4,-2.33,0.0022
0.43,0.97,0.02,2.31,-3.69,0.05,-24.02,-16.7,-21.39,1.15,-0.42,-2.3,0.0024
0.42,0.98,0.02,2.27,-3.03,-0.63,-24.02,-16.11,-21.39,1.16,-0.41,-2.32,0.0026
0.42,0.98,0.01,2.11,1.01,0.21,-24.32,-15.82,-21.39,1.16,-0.41,-2.33,0.0028
0.42,0.97,0.02,2.81,3.65,-0.43,-24.9,-16.11,-21.39,1.16,-0.41,-2.33,0.003
0.44,0.97,0.03,3.92,-0.52,-2.48,-23.73,-16.41,-21.39,1.15,-0.42,-2.31,0.0032
0.42,0.97,0.04,4.3,-1.85,-3.88,-24.61,-16.41,-21.68,1.16,-0.41,-2.32,0.0034
0.41,0.98,0.02,5.32,-1.61,-3.79,-23.73,-16.11,-22.27,1.17,-0.4,-2.33,0.0036
0.41,0.98,0.02,5.26,-0.79,-4.17,-23.73,-16.11,-21.97,1.18,-0.39,-2.33,0.0038
0.41,0.98,0.02,5.39,-3.17,-4.62,-23.44,-16.11,-21.68,1.17,-0.4,-2.32,0.004
0.4,0.97,0.03,5.38,-1.58,-4.05,-24.32,-16.11,-21.97,1.18,-0.39,-2.34,0.0042
0.38,0.99,0.01,5.61,-1.03,-3.07,-23.73,-15.82,-21.68,1.2,-0.37,-2.35,0.0044
0.39,0.99,0.01,5.73,-3.61,-3.54,-24.02,-15.82,-21.97,1.2,-0.37,-2.35,0.0046
0.39,0.98,0.02,5.9,-4.6,-3.39,-23.73,-15.82,-21.68,1.19,-0.38,-2.34,0.0048
0.39,0.98,0.01,5.34,-3.51,-2.33,-23.73,-14.65,-22.56,1.19,-0.38,-2.38,0.005
0.38,0.99,-0.0,5.48,-2.53,-1.8,-24.02,-15.82,-21.68,1.2,-0.37,-2.35,0.0053
0.39,0.99,-0.01,5.1,-4.02,-2.48,-24.61,-16.41,-21.97,1.19,-0.38,-2.34,0.0055
0.39,0.99,-0.02,4.67,-3.85,-1.94,-24.32,-15.82,-21.97,1.2,-0.37,-2.35,0.0057
0.38,0.99,-0.02,4.17,-3.58,-1.34,-24.32,-15.82,-22.85,1.2,-0.37,-2.36,0.0059
0.39,0.99,-0.02,3.91,-2.48,-0.66,-24.61,-15.53,-21.97,1.2,-0.37,-2.36,0.0061
0.39,1.0,-0.03,3.36,-1.8,-0.32,-24.61,-15.23,-22.56,1.2,-0.37,-2.38,0.0063
0.38,1.0,-0.03,3.19,0.4,-0.03,-24.32,-15.53,-22.27,1.2,-0.37,-2.37,0.0065
0.39,1.0,-0.03,3.05,0.5,-0.02,-24.32,-15.53,-22.27,1.2,-0.37,-2.37,0.0067
0.39,0.99,-0.02,2.65,0.5,0.2,-24.02,-15.53,-22.27,1.2,-0.37,-2.36,0.0069
0.39,0.99,-0.02,2.85,0.51,-0.05,-24.02,-15.53,-23.14,1.19,-0.38,-2.37,0.0071
0.4,0.99,-0.02,2.85,-0.14,-0.69,-23.73,-15.53,-22.27,1.19,-0.38,-2.36,0.0073
0.39,0.99,-0.03,3.08,0.04,-0.63,-24.02,-15.23,-22.56,1.19,-0.37,-2.37,0.0075
0.39,0.99,-0.01,3.36,0.07,-1.07,-24.32,-15.53,-22.27,1.2,-0.37,-2.36,0.0077
0.38,0.99,-0.02,3.57,-0.04,-1.01,-24.02,-15.23,-21.68,1.2,-0.37,-2.36,0.0079
0.39,1.0,-0.03,3.73,-1.43,-1.56,-24.61,-15.53,-21.97,1.2,-0.37,-2.36,0.0081
0.39,0.99,-0.02,3.52,-1.59,-1.82,-23.73,-15.53,-22.27,1.2,-0.37,-2.36,0.0083
0.39,0.99,-0.02,3.56,-1.34,-2.08,-23.73,-14.94,-22.27,1.2,-0.37,-2.38,0.0085
0.38,0.99,-0.03,4.18,-1.91,-2.16,-24.32,-15.82,-23.14,1.2,-0.37,-2.37,0.0087
0.38,1.0,-0.03,4.22,-2.78,-2.73,-24.61,-14.94,-22.27,1.21,-0.36,-2.39,0.0088
0.38,1.0,-0.03,4.56,-3.56,-2.82,-24.9,-15.23,-22.85,1.21,-0.36,-2.39,0.009
0.38,1.0,-0.03,4.92,-3.36,-2.89,-24.02,-15.23,-21.68,1.21,-0.36,-2.37,0.0092
0.38,1.0,-0.04,4.62,-3.36,-2.29,-24.9,-15.23,-22.56,1.21,-0.36,-2.39,0.0094
0.37,1.0,-0.04,4.07,-4.55,-2.56,-24.32,-14.65,-22.85,1.21,-0.35,-2.4,0.0096
0.38,1.0,-0.05,3.93,-2.59,-1.23,-24.02,-14.36,-22.56,1.21,-0.36,-2.4,0.0098
0.37,1.01,-0.06,3.12,-2.62,-1.08,-24.61,-14.94,-22.56,1.21,-0.35,-2.4,0.01
0.36,1.01,-0.05,3.3,-2.22,-1.52,-24.02,-15.23,-23.14,1.22,-0.34,-2.39,0.0101
0.37,1.0,-0.05,3.4,-0.24,-0.57,-24.02,-14.94,-22.56,1.21,-0.36,-2.39,0.0103
0.37,1.0,-0.05,3.02,0.49,0.17,-24.32,-14.65,-22.85,1.21,-0.36,-2.4,0.0105
0.38,1.01,-0.05,2.89,0.54,0.18,-24.9,-15.53,-21.97,1.21,-0.36,-2.37,0.0107
0.38,1.01,-0.05,2.5,0.8,0.35,-23.73,-15.23,-23.73,1.21,-0.36,-2.39,0.0109
0.37,1.0,-0.05,3.07,0.85,0.21,-24.61,-14.94,-22.85,1.21,-0.36,-2.4,0.0111
0.37,1.0,-0.04,2.84,2.18,0.58,-24.32,-14.94,-22.85,1.22,-0.35,-2.4,0.0112
0.37,1.01,-0.06,2.88,2.34,1.06,-24.32,-15.53,-22.56,1.21,-0.36,-2.38,0.0114
0.39,1.0,-0.06,2.73,-1.13,-1.31,-24.32,-15.23,-22.56,1.2,-0.37,-2.38,0.0116
0.38,1.0,-0.05,2.8,0.65,-0.52,-24.02,-15.23,-23.14,1.21,-0.36,-2.39,0.0118
0.38,1.0,-0.05,3.14,0.07,-1.23,-24.61,-14.65,-23.14,1.21,-0.36,-2.41,0.012
0.38,1.0,-0.05,3.76,0.37,-1.32,-24.02,-15.53,-22.27,1.21,-0.36,-2.37,0.0122
0.35,1.01,-0.05,4.47,3.67,0.18,-24.32,-15.23,-22.56,1.24,-0.33,-2.39,0.0123
0.38,1.01,-0.06,3.98,5.03,1.44,-24.32,-15.23,-23.14,1.21,-0.36,-2.39,0.0125
0.39,1.0,-0.06,2.57,0.94,0.4,-24.32,-15.23,-23.14,1.2,-0.37,-2.38,0.0127
0.38,1.0,-0.05,2.64,0.22,0.53,-24.32,-15.82,-23.44,1.21,-0.36,-2.38,0.013
0.38,1.0,-0.04,2.83,1.33,1.19,-23.73,-15.82,-23.44,1.21,-0.36,-2.37,0.0131
0.39,1.0,-0.02,2.17,0.43,0.28,-25.2,-15.23,-23.14,1.2,-0.37,-2.39,0.0133
0.39,1.0,-0.04,0.38,0.72,-0.26,-24.61,-15.82,-22.56,1.2,-0.37,-2.36,0.0135
0.38,0.99,-0.06,2.11,-6.2,-3.31,-24.32,-15.23,-23.14,1.2,-0.37,-2.38,0.0137
0.37,0.99,-0.05,3.34,-4.94,-2.03,-24.61,-15.23,-22.56,1.21,-0.36,-2.38,0.0139
0.38,1.01,-0.05,2.14,-2.4,-0.82,-23.73,-14.94,-22.56,1.2,-0.36,-2.38,0.0141
0.37,1.0,-0.06,1.27,1.43,0.88,-24.61,-14.65,-22.27,1.21,-0.35,-2.4,0.0143
0.36,1.0,-0.04,0.26,5.5,3.06,-24.32,-16.11,-22.27,1.23,-0.34,-2.36,0.0144
0.4,0.99,-0.06,0.66,3.97,1.76,-24.32,-15.23,-22.27,1.19,-0.38,-2.37,0.0146
0.4,1.0,-0.01,-0.86,4.13,1.54,-23.44,-15.53,-22.56,1.19,-0.38,-2.36,0.0148
0.37,0.98,-0.04,-1.28,8.93,4.42,-24.02,-15.53,-22.27,1.21,-0.36,-2.37,0.015
0.38,1.01,-0.05,-0.16,12.4,5.9,-24.02,-16.11,-22.27,1.21,-0.35,-2.35,0.0152
0.4,1.0,-0.02,1.03,2.3,0.99,-24.61,-15.53,-21.68,1.19,-0.38,-2.36,0.0154
0.41,0.97,0.01,1.88,-1.11,-0.45,-23.73,-16.11,-22.27,1.18,-0.39,-2.33,0.0155
0.4,0.98,0.04,2.13,0.94,0.56,-24.32,-16.41,-21.97,1.18,-0.39,-2.33,0.0157
0.41,0.98,0.01,2.47,-2.57,-1.13,-24.32,-15.23,-21.68,1.17,-0.4,-2.36,0.0159
0.4,0.98,0.01,3.19,-5.51,-2.62,-23.73,-16.11,-21.97,1.18,-0.39,-2.33,0.016
0.4,0.99,0.0,3.44,-5.45,-3.1,-23.14,-16.41,-22.56,1.18,-0.39,-2.33,0.0162
0.39,0.99,-0.01,3.96,-2.43,-1.9,-23.44,-15.82,-22.56,1.2,-0.37,-2.35,0.0164
0.4,0.99,-0.01,4.08,-4.37,-2.69,-24.02,-16.41,-22.27,1.19,-0.38,-2.33,0.0165
0.4,0.99,-0.0,3.89,-5.66,-2.75,-23.44,-15.82,-21.97,1.19,-0.38,-2.34,0.0167
0.38,0.99,-0.03,3.77,-1.99,-0.75,-24.9,-15.82,-22.27,1.2,-0.37,-2.36,0.0169
0.38,1.0,-0.02,3.36,-0.88,0.08,-24.61,-16.11,-22.27,1.2,-0.37,-2.35,0.0171
0.38,0.99,-0.03,2.23,2.86,1.91,-23.73,-16.7,-22.27,1.2,-0.37,-2.33,0.0172
0.39,1.0,-0.03,2.49,2.65,1.79,-23.73,-15.82,-21.68,1.19,-0.38,-2.34,0.0174
0.4,0.98,-0.02,2.37,4.43,3.17,-23.73,-15.82,-22.56,1.18,-0.39,-2.35,0.0176
0.39,1.0,-0.03,1.94,8.16,4.3,-24.32,-16.41,-21.97,1.2,-0.37,-2.34,0.0177
0.38,1.01,-0.07,2.38,14.69,6.99,-24.32,-16.11,-23.14,1.2,-0.36,-2.36,0.0179
0.39,1.0,-0.06,0.79,13.02,6.05,-24.61,-16.11,-22.27,1.19,-0.37,-2.35,0.0181
0.38,0.99,0.0,0.71,13.25,6.08,-24.02,-16.11,-21.97,1.2,-0.37,-2.34,0.0183
0.42,0.97,0.06,2.31,15.38,6.65,-24.02,-16.99,-21.68,1.16,-0.4,-2.3,0.0184
0.47,0.93,0.12,7.32,13.8,1.65,-24.02,-16.7,-21.68,1.09,-0.47,-2.29,0.0186
0.53,0.91,0.09,6.26,-10.6,-6.47,-24.9,-16.7,-21.68,1.04,-0.52,-2.28,0.0188
0.43,0.97,0.02,5.95,-17.62,-9.38,-24.61,-17.29,-21.97,1.15,-0.42,-2.3,0.0189
0.38,1.01,-0.05,4.31,-23.48,-14.37,-24.02,-16.41,-21.97,1.21,-0.35,-2.34,0.0191
0.32,1.0,-0.05,3.98,-2.77,-3.22,-24.32,-16.11,-22.56,1.26,-0.3,-2.38,0.0193
0.38,1.01,-0.05,4.78,4.71,0.79,-24.32,-15.23,-23.14,1.21,-0.36,-2.39,0.0194
0.4,1.0,-0.02,2.82,3.55,-0.31,-24.02,-16.41,-21.68,1.19,-0.38,-2.33,0.0196
0.39,0.99,-0.01,1.88,8.27,1.72,-23.73,-16.11,-22.56,1.19,-0.38,-2.34,0.0198
0.41,0.99,0.02,2.49,8.69,0.14,-24.02,-16.11,-23.44,1.18,-0.39,-2.35,0.0199
0.4,0.98,-0.03,1.46,11.91,2.25,-24.9,-16.11,-22.27,1.18,-0.39,-2.34,0.0201
0.35,1.01,-0.04,0.54,19.81,4.46,-24.02,-15.82,-22.27,1.23,-0.34,-2.37,0.0203
0.44,1.01,-0.05,-0.72,25.07,3.97,-24.02,-16.7,-22.27,1.16,-0.41,-2.31,0.0205
0.45,0.99,0.0,-3.86,29.46,2.56,-23.44,-16.11,-22.56,1.15,-0.42,-2.32,0.0206
0.3,1.02,-0.03,-5.26,42.59,6.1,-24.02,-15.82,-22.27,1.28,-0.29,-2.39,0.0208
0.25,0.95,0.01,4.94,97.08,30.85,-23.44,-16.99,-21.97,1.32,-0.26,-2.36,0.021
0.37,0.8,0.2,-27.17,125.08,50.31,-23.44,-16.99,-20.8,1.09,-0.42,-2.3,0.0211
0.37,0.82,0.28,-24.83,104.83,51.48,-23.44,-18.46,-21.68,1.06,-0.4,-2.3,0.0213
0.32,0.9,0.43,-4.51,110.92,41.51,-23.44,-19.34,-20.51,1.04,-0.31,-2.33,0.0215
0.43,0.75,0.49,-25.98,102.46,20.07,-22.85,-18.75,-20.8,0.85,-0.45,-2.3,0.0217
0.54,1.27,0.11,10.54,57.49,-12.62,-23.14,-19.04,-20.51,1.16,-0.4,-2.23,0.0219
0.24,0.79,0.34,0.46,49.7,-22.13,-23.44,-18.46,-20.8,1.09,-0.27,-2.38,0.0221
0.08,0.94,0.27,10.75,71.82,-2.9,-22.85,-17.58,-20.51,1.28,-0.08,-2.48,0.0222
0.02,0.85,0.44,5.06,57.97,12.27,-22.85,-17.58,-21.39,1.09,-0.02,-2.59,0.0224
0.04,0.89,0.44,-0.18,57.46,23.56,-23.44,-18.75,-21.97,1.11,-0.04,-2.56,0.0226
0.11,0.9,0.34,2.46,44.38,32.42,-22.85,-19.63,-22.27,1.2,-0.11,-2.46,0.0227
0.22,0.87,0.26,8.67,5.37,10.0,-22.85,-19.04,-22.56,1.19,-0.24,-2.37,0.0229
0.11,0.91,0.26,10.03,-21.52,-1.69,-23.73,-18.75,-22.85,1.27,-0.11,-2.47,0.0231
0.11,0.91,0.3,8.54,-26.53,0.8,-22.85,-19.63,-22.85,1.23,-0.12,-2.45,0.0233
0.13,0.91,0.27,12.35,-33.04,-2.28,-23.14,-19.04,-23.44,1.25,-0.14,-2.45,0.0234
0.23,0.93,0.24,19.78,-45.23,-11.15,-23.73,-18.75,-23.44,1.23,-0.24,-2.39,0.0236
0.16,0.93,0.3,27.68,-44.85,-12.34,-23.14,-18.75,-23.73,1.22,-0.16,-2.45,0.0237
0.21,0.93,0.31,31.77,-63.25,-17.49,-23.73,-18.75,-24.32,1.19,-0.21,-2.43,0.0239
0.25,0.95,0.23,31.61,-80.57,-25.38,-23.14,-18.16,-25.49,1.23,-0.25,-2.42,0.0241
0.17,0.98,0.13,29.24,-59.66,-19.72,-22.85,-17.58,-25.78,1.35,-0.17,-2.46,0.0242
0.18,0.99,0.14,28.02,-51.35,-12.83,-23.44,-16.99,-27.25,1.34,-0.18,-2.49,0.0244
0.24,0.96,0.16,23.6,-46.88,-10.68,-24.32,-16.7,-27.25,1.28,-0.24,-2.47,0.0245
0.24,0.99,0.06,18.36,-62.12,-16.14,-22.85,-15.23,-27.83,1.33,-0.24,-2.5,0.0247
0.18,1.02,-0.05,13.08,-57.24,-17.16,-23.14,-15.82,-27.83,1.39,-0.18,-2.52,0.0249
0.11,1.06,-0.12,9.8,-33.02,-8.74,-22.56,-14.65,-27.54,1.42,-0.1,-2.6,0.0251
0.2,1.07,-0.13,3.54,-17.84,-5.06,-23.44,-15.23,-27.83,1.35,-0.19,-2.54,0.0252
0.14,0.98,-0.03,-6.8,0.02,-11.02,-23.44,-14.36,-27.25,1.42,-0.14,-2.57,0.0254
0.14,1.01,-0.04,-2.67,8.26,-3.22,-23.73,-14.65,-27.83,1.43,-0.14,-2.57,0.0256
0.21,1.06,-0.14,-4.0,25.17,1.74,-24.32,-15.23,-26.37,1.34,-0.19,-2.52,0.0257
0.17,1.05,-0.03,-14.1,-3.6,-31.99,-23.14,-14.94,-26.07,1.4,-0.16,-2.53,0.0259
0.17,0.99,0.09,-14.16,-24.04,-44.36,-23.14,-13.18,-25.2,1.38,-0.17,-2.57,0.026
0.13,0.99,0.06,-10.5,-17.05,-33.79,-23.14,-12.89,-24.9,1.43,-0.13,-2.59,0.0262
0.15,0.98,0.06,-12.56,-5.29,-6.26,-23.73,-13.48,-24.9,1.41,-0.16,-2.56,0.0264
0.19,0.99,0.04,-21.49,13.77,18.48,-24.02,-13.48,-24.02,1.38,-0.19,-2.53,0.0265
0.08,0.98,0.17,-22.36,14.52,5.67,-24.02,-13.18,-23.73,1.38,-0.08,-2.63,0.0267
0.11,0.99,0.17,-17.23,0.96,5.1,-24.32,-13.48,-23.73,1.37,-0.11,-2.6,0.0268
0.08,0.97,0.23,-11.67,7.39,9.95,-23.44,-13.77,-23.44,1.33,-0.08,-2.62,0.027
0.17,0.96,0.23,-9.9,2.53,3.35,-23.73,-14.36,-22.85,1.28,-0.17,-2.54,0.0271
0.26,0.96,0.15,-8.2,-34.74,-13.31,-23.44,-14.36,-22.56,1.27,-0.26,-2.46,0.0273
0.0,0.91,0.25,-9.7,-7.67,3.13,-23.44,-13.48,-22.85,1.3,-0.0,-2.69,0.0275
0.13,0.95,0.19,-6.2,3.83,3.77,-22.85,-14.65,-22.56,1.33,-0.14,-2.53,0.0276
0.18,0.95,0.27,-2.43,-25.41,-7.79,-24.02,-14.36,-22.85,1.24,-0.18,-2.54,0.0278
0.15,0.87,0.31,4.14,-61.2,-12.44,-24.02,-13.77,-21.97,1.19,-0.16,-2.58,0.0279
0.09,0.95,0.19,9.07,-50.28,-4.76,-23.73,-14.94,-22.27,1.35,-0.09,-2.56,0.0281
0.12,0.96,0.14,13.07,-54.24,1.89,-23.73,-14.36,-21.09,1.38,-0.13,-2.51,0.0282
0.22,0.91,0.31,19.51,-82.21,4.14,-23.44,-15.53,-20.21,1.18,-0.22,-2.46,0.0284
0.31,0.95,0.31,22.01,-98.45,0.91,-24.61,-15.53,-20.8,1.14,-0.3,-2.43,0.0285
0.33,0.98,0.21,23.65,-55.95,11.89,-24.32,-15.23,-20.51,1.19,-0.32,-2.4,0.0287
0.42,1.02,0.03,34.36,-71.17,4.14,-24.9,-15.23,-20.8,1.18,-0.39,-2.35,0.0289
0.61,0.93,0.01,36.77,-123.77,-64.91,-24.61,-14.94,-21.09,0.99,-0.58,-2.3,0.029
0.19,0.94,0.18,18.56,-130.25,-87.04,-24.32,-13.48,-20.8,1.3,-0.2,-2.51,0.0292
0.35,0.87,0.05,22.66,-113.7,-50.21,-24.32,-12.89,-20.51,1.18,-0.38,-2.42,0.0294
-0.07,0.94,-0.14,-9.16,-50.67,-2.91,-24.61,-12.6,-19.92,1.41,0.07,-2.71,0.0295
-0.06,1.11,-0.11,12.96,28.56,25.9,-24.61,-13.48,-19.34,1.46,0.05,-2.64,0.0297
0.38,1.02,-0.14,11.6,-6.36,11.84,-25.49,-13.18,-19.92,1.19,-0.36,-2.43,0.0298
0.36,1.02,-0.13,4.94,-33.73,-0.72,-25.49,-13.48,-20.51,1.21,-0.34,-2.44,0.03
0.35,1.1,-0.2,16.46,15.46,17.49,-25.78,-14.06,-19.63,1.22,-0.31,-2.43,0.0302
0.25,1.1,-0.31,11.85,-8.54,0.65,-26.66,-13.77,-20.21,1.23,-0.22,-2.52,0.0303
0.28,1.07,-0.27,6.05,-8.77,-10.84,-26.07,-12.89,-20.51,1.22,-0.25,-2.52,0.0305
0.22,0.97,-0.11,-1.91,-16.39,-23.74,-26.37,-13.48,-19.63,1.33,-0.22,-2.48,0.0306
0.28,0.93,-0.06,-8.62,-30.04,-28.82,-26.07,-13.48,-19.63,1.27,-0.3,-2.44,0.0308
0.39,1.09,-0.04,4.68,-33.05,0.31,-25.78,-13.48,-19.92,1.23,-0.34,-2.42,0.031
0.21,1.05,-0.17,-5.65,4.26,8.41,-25.78,-13.18,-19.04,1.32,-0.2,-2.5,0.0311
0.18,1.13,-0.29,-0.54,12.6,3.69,-26.07,-13.18,-18.75,1.28,-0.16,-2.54,0.0313
0.28,1.02,-0.15,-2.65,0.85,0.76,-25.78,-13.77,-18.75,1.27,-0.27,-2.44,0.0314
0.26,1.03,-0.07,-0.97,0.06,-1.31,-26.37,-12.01,-18.75,1.32,-0.24,-2.49,0.0316
0.26,1.02,-0.06,2.59,-0.75,-0.66,-25.78,-12.89,-18.46,1.32,-0.25,-2.45,0.0317
0.26,1.05,-0.13,2.75,-8.03,-4.02,-25.49,-13.18,-18.75,1.3,-0.24,-2.46,0.0319
0.24,1.05,-0.14,2.4,-7.48,-4.54,-25.78,-12.6,-18.46,1.31,-0.22,-2.49,0.032
0.25,1.03,-0.09,3.77,-7.05,-3.4,-25.78,-12.89,-18.75,1.32,-0.23,-2.47,0.0322
0.25,1.04,-0.09,5.23,-7.27,-4.71,-25.78,-12.6,-18.75,1.32,-0.24,-2.48,0.0323
0.25,1.04,-0.14,4.55,-3.92,-2.61,-25.2,-13.77,-18.16,1.3,-0.23,-2.44,0.0324
0.24,1.05,-0.14,3.68,-5.74,-3.34,-25.78,-12.89,-19.04,1.31,-0.22,-2.49,0.0326
0.22,1.03,-0.13,3.42,-1.12,-1.13,-25.49,-14.06,-18.16,1.33,-0.21,-2.44,0.0327
0.23,1.04,-0.13,3.26,-2.38,-1.27,-26.07,-13.18,-18.46,1.32,-0.22,-2.47,0.0329
0.23,1.04,-0.14,2.69,-1.5,-0.85,-25.78,-13.77,-18.75,1.32,-0.22,-2.46,0.033
0.23,1.04,-0.14,2.88,-0.09,-0.69,-26.07,-13.48,-19.34,1.32,-0.21,-2.48,0.0332
0.23,1.03,-0.13,2.57,-0.82,-0.68,-25.78,-13.77,-18.46,1.32,-0.22,-2.45,0.0333
0.23,1.04,-0.13,2.3,-1.22,-1.06,-25.78,-13.18,-18.75,1.32,-0.22,-2.47,0.0335
0.23,1.04,-0.13,2.67,0.25,-0.85,-26.37,-13.18,-18.46,1.33,-0.21,-2.47,0.0336
0.23,1.04,-0.13,2.81,-3.23,-1.85,-26.07,-12.6,-19.04,1.32,-0.22,-2.5,0.0338
0.23,1.04,-0.13,3.07,0.18,-0.61,-26.37,-12.89,-18.75,1.32,-0.21,-2.49,0.0339
0.23,1.04,-0.13,2.7,0.12,-0.49,-25.78,-12.89,-19.34,1.32,-0.22,-2.49,0.0341
0.23,1.04,-0.14,2.41,-0.82,-0.49,-26.07,-13.18,-18.46,1.32,-0.21,-2.47,0.0342
0.23,1.04,-0.13,2.84,-1.3,-0.83,-25.49,-13.48,-19.04,1.32,-0.22,-2.46,0.0344
0.23,1.04,-0.12,2.95,-1.02,-0.85,-25.78,-13.18,-18.75,1.32,-0.22,-2.47,0.0345
0.23,1.04,-0.13,2.94,-0.13,-0.79,-25.78,-12.89,-18.75,1.32,-0.22,-2.48,0.0347
0.23,1.04,-0.13,3.02,-0.76,-0.78,-25.78,-12.89,-18.46,1.32,-0.22,-2.48,0.0348
0.22,1.04,-0.13,2.94,-0.05,-0.45,-26.37,-13.48,-19.34,1.33,-0.21,-2.48,0.035
0.23,1.04,-0.14,2.84,-0.11,-0.36,-26.07,-12.6,-18.75,1.32,-0.21,-2.5,0.0351
0.23,1.04,-0.13,2.88,-0.12,-0.7,-26.07,-13.48,-17.87,1.32,-0.22,-2.45,0.0353
0.23,1.04,-0.13,2.88,0.31,-0.24,-25.78,-12.89,-19.04,1.32,-0.22,-2.49,0.0354
0.23,1.04,-0.13,3.23,-0.69,-0.89,-25.78,-12.6,-18.16,1.32,-0.22,-2.48,0.0355
0.23,1.04,-0.13,2.78,-0.5,-0.76,-26.37,-13.18,-18.16,1.32,-0.21,-2.47,0.0357
0.23,1.04,-0.14,2.66,-1.0,-0.92,-25.49,-13.48,-17.87,1.32,-0.21,-2.45,0.0358
0.23,1.04,-0.13,2.76,-0.68,-0.81,-25.78,-13.18,-18.75,1.32,-0.21,-2.47,0.036
0.23,1.04,-0.13,2.78,-1.06,-1.19,-26.07,-13.18,-18.46,1.32,-0.21,-2.47,0.0361
0.22,1.04,-0.13,2.88,-1.13,-1.27,-25.78,-12.3,-18.75,1.33,-0.21,-2.5,0.0363
0.23,1.03,-0.13,2.62,-1.26,-1.22,-26.07,-13.48,-19.04,1.33,-0.21,-2.47,0.0364
0.23,1.04,-0.13,2.88,-1.05,-1.52,-25.49,-12.89,-18.75,1.32,-0.21,-2.48,0.0366
0.22,1.04,-0.13,2.97,-0.7,-0.96,-26.37,-13.18,-18.75,1.33,-0.21,-2.48,0.0367
0.23,1.04,-0.13,2.86,-0.48,-1.26,-26.07,-13.18,-18.46,1.33,-0.21,-2.47,0.0368
0.22,1.04,-0.13,3.11,0.37,-0.87,-25.78,-13.18,-18.75,1.33,-0.21,-2.47,0.037
0.22,1.05,-0.14,2.93,-1.75,-1.63,-25.49,-13.77,-18.75,1.33,-0.21,-2.46,0.0371
0.22,1.04,-0.13,3.43,-2.16,-1.72,-25.49,-12.89,-18.75,1.33,-0.2,-2.48,0.0373
0.22,1.04,-0.13,3.56,-1.64,-1.63,-26.07,-13.48,-18.16,1.33,-0.21,-2.46,0.0374
0.23,1.05,-0.14,3.68,-2.7,-1.95,-25.49,-12.6,-18.75,1.32,-0.21,-2.49,0.0376
0.21,1.04,-0.14,3.54,-2.15,-1.96,-25.78,-13.48,-18.16,1.33,-0.2,-2.46,0.0377
0.22,1.04,-0.14,2.99,-1.75,-1.89,-25.78,-12.89,-18.46,1.32,-0.21,-2.48,0.0379
0.22,1.04,-0.14,2.77,-1.71,-2.15,-26.07,-13.18,-19.04,1.33,-0.2,-2.49,0.038
0.22,1.04,-0.13,2.65,-3.94,-2.78,-25.78,-12.89,-18.75,1.33,-0.2,-2.49,0.0382
0.21,1.05,-0.14,1.97,-2.62,-2.11,-25.78,-13.48,-18.75,1.34,-0.19,-2.48,0.0383
0.2,1.04,-0.15,1.54,-0.27,-1.18,-25.78,-12.6,-18.46,1.33,-0.19,-2.5,0.0385
0.21,1.05,-0.12,1.53,-0.77,-1.2,-25.78,-12.89,-17.87,1.34,-0.2,-2.47,0.0386
0.21,1.04,-0.13,2.21,-2.03,-1.67,-25.78,-12.6,-18.46,1.34,-0.2,-2.49,0.0388
0.2,1.04,-0.14,2.3,-1.94,-1.43,-25.78,-12.3,-18.75,1.34,-0.19,-2.51,0.0389
0.21,1.04,-0.13,2.61,-1.79,-0.81,-24.61,-12.89,-18.16,1.34,-0.19,-2.47,0.0391
0.2,1.04,-0.14,2.91,-1.81,-0.47,-25.2,-13.18,-18.46,1.34,-0.19,-2.48,0.0392
0.21,1.05,-0.14,2.87,-0.98,-0.11,-26.07,-13.18,-19.04,1.34,-0.2,-2.49,0.0394
0.21,1.04,-0.14,2.65,-1.23,0.17,-25.78,-12.89,-18.75,1.33,-0.2,-2.49,0.0395
0.21,1.04,-0.14,2.4,-0.79,0.42,-26.07,-13.18,-19.34,1.34,-0.2,-2.49,0.0397
0.21,1.04,-0.13,2.26,-1.06,0.4,-25.2,-12.6,-17.87,1.34,-0.2,-2.48,0.0398
0.21,1.04,-0.13,2.17,0.34,0.78,-26.07,-13.48,-18.46,1.33,-0.2,-2.47,0.0399
0.21,1.04,-0.12,2.19,1.33,0.9,-26.07,-12.3,-19.04,1.34,-0.2,-2.51,0.0401
0.22,1.04,-0.12,2.4,1.31,0.79,-25.78,-12.89,-19.34,1.33,-0.2,-2.49,0.0402
0.22,1.04,-0.13,2.55,1.34,0.47,-25.49,-12.3,-18.46,1.33,-0.2,-2.5,0.0404
0.22,1.04,-0.13,2.69,1.91,0.7,-26.37,-12.89,-18.16,1.33,-0.21,-2.48,0.0405
0.22,1.04,-0.13,2.94,1.15,0.56,-26.37,-12.89,-18.75,1.33,-0.2,-2.49,0.0407
0.22,1.04,-0.13,2.95,0.56,-0.2,-25.49,-12.6,-18.46,1.33,-0.21,-2.49,0.0408
0.22,1.04,-0.13,3.23,-0.23,-0.6,-26.37,-12.89,-18.75,1.33,-0.21,-2.49,0.0409
0.22,1.04,-0.12,3.4,-1.45,-1.24,-25.78,-12.89,-18.75,1.33,-0.21,-2.48,0.0411
0.21,1.04,-0.13,3.22,-0.79,-0.6,-26.37,-13.77,-18.46,1.34,-0.2,-2.46,0.0412
0.2,1.04,-0.14,3.1,0.85,0.92,-25.49,-12.89,-19.63,1.34,-0.19,-2.51,0.0414
0.24,1.04,-0.15,2.15,-1.38,-0.7,-25.78,-12.89,-18.75,1.31,-0.22,-2.48,0.0415
0.23,1.04,-0.13,2.27,-1.55,-1.41,-25.78,-12.89,-18.46,1.32,-0.22,-2.48,0.0417
0.23,1.03,-0.1,3.43,-5.62,-4.23,-25.78,-12.89,-19.04,1.33,-0.22,-2.48,0.0418
0.21,1.04,-0.12,4.52,-6.24,-4.84,-25.2,-12.01,-18.16,1.34,-0.2,-2.5,0.0419
0.2,1.04,-0.15,4.01,-2.83,-3.46,-26.07,-12.01,-18.16,1.33,-0.19,-2.52,0.0421
0.21,1.04,-0.14,3.06,-1.05,-2.44,-25.78,-13.48,-18.16,1.33,-0.2,-2.46,0.0422
0.21,1.04,-0.14,2.75,-0.2,-2.06,-25.49,-12.89,-18.16,1.34,-0.19,-2.48,0.0423
0.2,1.05,-0.14,2.4,0.88,-1.38,-26.37,-12.6,-18.16,1.34,-0.18,-2.5,0.0425
0.2,1.05,-0.15,1.95,0.84,-0.12,-26.37,-12.89,-18.75,1.34,-0.18,-2.5,0.0426
0.21,1.04,-0.13,1.65,-0.12,-0.67,-26.37,-12.6,-18.46,1.34,-0.2,-2.5,0.0427
0.2,1.05,-0.12,1.81,0.14,-0.86,-25.2,-13.48,-18.16,1.35,-0.19,-2.46,0.0429
0.21,1.05,-0.13,2.57,-0.67,-0.71,-25.78,-12.6,-17.58,1.34,-0.2,-2.48,0.043
0.2,1.04,-0.12,3.36,-3.8,-2.56,-25.2,-13.18,-18.46,1.35,-0.19,-2.47,0.0432
0.21,1.04,-0.13,3.75,-4.52,-3.12,-25.49,-12.89,-18.75,1.34,-0.2,-2.49,0.0433
0.2,1.05,-0.12,4.07,-4.2,-3.81,-25.78,-12.89,-18.46,1.35,-0.19,-2.49,0.0434
0.19,1.05,-0.15,3.36,-0.65,-1.66,-25.2,-12.3,-19.63,1.35,-0.17,-2.53,0.0436
0.18,1.05,-0.16,1.9,5.19,1.75,-25.49,-12.6,-18.46,1.35,-0.16,-2.51,0.0437
0.19,1.04,-0.14,2.08,4.01,1.96,-25.2,-12.89,-18.75,1.35,-0.18,-2.49,0.0438
0.21,1.04,-0.12,2.01,0.17,0.14,-26.07,-12.3,-19.04,1.34,-0.19,-2.52,0.044
0.19,1.04,-0.13,2.33,1.15,1.22,-24.61,-12.01,-18.75,1.35,-0.18,-2.52,0.0441
0.2,1.04,-0.13,2.79,0.56,0.58,-25.78,-12.89,-18.75,1.35,-0.19,-2.49,0.0442
0.2,1.04,-0.13,3.11,-2.01,-0.46,-25.49,-12.3,-18.46,1.34,-0.19,-2.5,0.0444
0.21,1.05,-0.12,3.14,-3.46,-1.39,-25.49,-12.89,-18.46,1.34,-0.19,-2.48,0.0445
0.2,1.04,-0.14,2.98,-4.58,-1.62,-26.07,-12.6,-18.75,1.34,-0.19,-2.51,0.0447
0.2,1.05,-0.13,3.52,-4.46,-1.33,-25.78,-12.89,-18.75,1.34,-0.19,-2.49,0.0448
0.2,1.04,-0.13,3.25,-3.01,-0.67,-25.78,-13.18,-18.46,1.35,-0.19,-2.48,0.0449
0.2,1.05,-0.15,3.05,-1.27,0.21,-26.37,-13.77,-18.46,1.34,-0.19,-2.47,0.0451
0.21,1.04,-0.14,2.88,-0.49,1.2,-26.07,-12.89,-18.75,1.34,-0.19,-2.5,0.0452
0.21,1.04,-0.13,2.62,1.7,1.47,-25.49,-12.6,-19.04,1.34,-0.2,-2.5,0.0453
0.21,1.04,-0.13,2.66,2.04,1.5,-25.49,-13.18,-18.75,1.34,-0.2,-2.48,0.0455
0.21,1.05,-0.15,2.7,2.28,1.95,-25.49,-12.89,-18.16,1.33,-0.2,-2.48,0.0456
0.22,1.04,-0.13,2.54,2.46,1.75,-25.78,-12.6,-18.16,1.33,-0.2,-2.49,0.0457
0.22,1.04,-0.13,2.56,2.96,1.8,-25.49,-12.89,-17.87,1.33,-0.21,-2.47,0.0459
0.22,1.04,-0.14,2.43,2.38,1.49,-25.49,-12.6,-18.46,1.32,-0.21,-2.49,0.046
0.23,1.04,-0.14,2.35,1.44,0.9,-25.78,-13.48,-18.16,1.32,-0.22,-2.46,0.0461
0.22,1.04,-0.13,2.29,0.92,0.66,-26.07,-13.48,-18.46,1.33,-0.21,-2.46,0.0463
0.22,1.04,-0.13,2.47,0.08,-0.14,-25.78,-13.48,-19.04,1.33,-0.21,-2.47,0.0464
0.23,1.04,-0.12,2.65,-0.72,-0.44,-25.78,-12.01,-18.46,1.33,-0.22,-2.51,0.0465
0.23,1.04,-0.13,2.85,-2.16,-1.43,-25.49,-12.89,-18.16,1.32,-0.22,-2.47,0.0467
0.23,1.04,-0.13,3.08,-3.78,-2.12,-25.49,-12.6,-19.04,1.32,-0.22,-2.49,0.0468
0.22,1.04,-0.13,2.95,-3.14,-2.07,-26.07,-12.89,-18.46,1.33,-0.21,-2.48,0.047
0.22,1.04,-0.13,2.93,-1.7,-1.5,-26.07,-12.6,-18.46,1.33,-0.21,-2.49,0.0471
0.22,1.04,-0.13,2.67,-1.08,-1.01,-24.9,-13.18,-18.75,1.33,-0.21,-2.47,0.0472
0.22,1.04,-0.14,2.46,-0.95,-0.79,-25.78,-13.18,-18.16,1.33,-0.21,-2.47,0.0474
0.22,1.04,-0.14,2.62,-0.51,-1.08,-25.78,-12.89,-18.16,1.33,-0.2,-2.48,0.0475
0.22,1.04,-0.13,2.82,-0.12,-0.6,-25.49,-12.6,-18.16,1.33,-0.2,-2.49,0.0476
0.22,1.04,-0.13,3.07,-0.52,-0.89,-25.49,-13.18,-18.75,1.33,-0.21,-2.47,0.0478
0.22,1.04,-0.13,3.31,-0.55,-0.86,-25.78,-12.89,-18.75,1.33,-0.21,-2.48,0.0479
0.22,1.04,-0.13,3.36,-0.04,-0.62,-25.78,-13.48,-18.16,1.33,-0.2,-2.46,0.0481
0.22,1.04,-0.13,3.68,-0.88,-0.98,-26.07,-13.48,-18.46,1.33,-0.21,-2.46,0.0482
0.22,1.04,-0.13,3.45,-0.92,-0.89,-25.49,-13.48,-19.34,1.33,-0.2,-2.48,0.0483
0.22,1.04,-0.15,2.73,-1.59,-1.14,-26.07,-13.48,-18.16,1.32,-0.2,-2.46,0.0485
0.22,1.04,-0.14,2.51,-2.56,-1.6,-26.07,-13.48,-19.34,1.33,-0.2,-2.48,0.0486
0.22,1.04,-0.13,2.36,-2.84,-1.72,-25.49,-12.6,-18.46,1.33,-0.2,-2.49,0.0487
0.21,1.04,-0.14,2.48,-2.56,-1.69,-25.78,-12.6,-18.46,1.33,-0.2,-2.49,0.0489
0.21,1.04,-0.14,2.48,-2.59,-1.63,-26.37,-12.89,-18.16,1.33,-0.2,-2.48,0.049
0.21,1.04,-0.14,2.35,-1.85,-1.19,-25.49,-13.18,-17.87,1.33,-0.2,-2.47,0.0491
0.21,1.04,-0.14,2.29,-0.3,-0.64,-26.07,-13.48,-18.16,1.33,-0.2,-2.46,0.0493
0.21,1.04,-0.13,2.18,0.73,-0.08,-25.78,-12.89,-18.75,1.34,-0.2,-2.49,0.0494
0.21,1.04,-0.14,2.17,2.24,0.82,-26.37,-12.89,-18.46,1.34,-0.19,-2.49,0.0496
0.22,1.04,-0.12,2.2,1.11,0.31,-25.49,-12.89,-18.46,1.33,-0.2,-2.48,0.0497
0.21,1.04,-0.12,2.37,0.72,0.32,-26.37,-12.6,-18.46,1.34,-0.2,-2.5,0.0498
0.22,1.04,-0.15,1.99,-0.69,-0.15,-25.49,-12.3,-19.04,1.33,-0.2,-2.51,0.05
0.21,1.04,-0.12,2.02,-2.06,-0.69,-25.78,-13.18,-18.46,1.34,-0.2,-2.47,0.0501
0.21,1.04,-0.12,2.46,-2.15,-0.87,-25.78,-13.77,-18.75,1.34,-0.2,-2.46,0.0502
0.22,1.05,-0.12,3.03,-3.78,-1.58,-25.2,-12.89,-18.16,1.33,-0.21,-2.47,0.0504
0.21,1.04,-0.12,3.1,-6.94,-2.63,-26.37,-13.48,-18.75,1.34,-0.2,-2.47,0.0505
0.2,1.04,-0.13,3.72,-1.43,-0.23,-25.49,-13.48,-18.75,1.34,-0.19,-2.47,0.0506
0.22,1.04,-0.12,3.85,-0.63,-0.11,-25.49,-12.89,-18.75,1.33,-0.21,-2.48,0.0508
0.21,1.04,-0.13,3.26,0.63,0.63,-26.07,-13.18,-18.16,1.34,-0.2,-2.47,0.0509
0.21,1.04,-0.14,3.17,4.31,2.17,-26.07,-13.77,-18.16,1.33,-0.2,-2.46,0.051
0.23,1.04,-0.13,2.7,2.96,1.81,-26.07,-13.18,-18.46,1.33,-0.21,-2.47,0.0512
0.22,1.04,-0.13,3.03,3.21,1.89,-25.78,-13.18,-18.46,1.33,-0.2,-2.47,0.0513
0.23,1.04,-0.13,3.02,1.55,1.24,-26.07,-13.48,-19.04,1.33,-0.21,-2.47,0.0514
0.23,1.04,-0.12,3.6,0.63,0.54,-25.2,-12.89,-18.46,1.33,-0.21,-2.47,0.0516
0.23,1.04,-0.13,3.78,0.99,0.75,-25.49,-13.18,-17.87,1.32,-0.21,-2.46,0.0517
0.23,1.04,-0.14,3.46,-1.59,-0.42,-26.07,-13.77,-17.87,1.32,-0.21,-2.44,0.0518
0.23,1.04,-0.14,3.21,-1.6,-0.48,-26.37,-13.48,-17.87,1.32,-0.21,-2.46,0.052
0.23,1.04,-0.14,2.86,0.77,0.94,-26.07,-13.18,-18.75,1.32,-0.22,-2.48,0.0521
0.23,1.05,-0.14,1.9,0.09,0.51,-26.37,-12.89,-19.04,1.31,-0.22,-2.49,0.0522
0.23,1.04,-0.13,2.05,-1.2,-0.34,-25.78,-12.89,-18.75,1.32,-0.22,-2.48,0.0524
0.23,1.04,-0.13,2.0,-1.37,-0.47,-25.78,-12.89,-19.92,1.32,-0.22,-2.5,0.0525
0.23,1.04,-0.13,2.21,-1.85,-0.78,-26.07,-13.48,-18.46,1.32,-0.22,-2.46,0.0526
0.23,1.04,-0.13,2.33,-1.41,-0.81,-25.78,-12.89,-18.46,1.32,-0.21,-2.48,0.0528
0.23,1.04,-0.13,2.39,-0.82,-0.11,-25.49,-13.18,-18.75,1.32,-0.22,-2.47,0.0529
0.23,1.04,-0.13,2.62,-0.21,0.15,-26.07,-13.18,-19.04,1.32,-0.22,-2.48,0.0531
0.23,1.04,-0.13,2.82,0.57,0.47,-25.49,-13.77,-18.16,1.32,-0.22,-2.44,0.0532
0.23,1.04,-0.13,2.84,0.05,0.22,-26.37,-13.48,-18.75,1.32,-0.22,-2.47,0.0533
0.23,1.04,-0.13,2.59,0.45,-0.01,-24.9,-13.48,-17.87,1.32,-0.22,-2.44,0.0534
0.23,1.04,-0.13,2.96,-0.4,-0.35,-25.78,-14.06,-18.16,1.32,-0.22,-2.43,0.0536
0.24,1.04,-0.13,2.77,-0.37,-0.5,-25.49,-13.48,-18.75,1.32,-0.22,-2.46,0.0537
0.24,1.04,-0.13,2.8,-1.28,-0.97,-26.07,-13.18,-18.75,1.31,-0.22,-2.47,0.0539
0.24,1.04,-0.13,2.82,-1.6,-1.3,-26.37,-13.18,-18.16,1.32,-0.22,-2.46,0.054
0.24,1.04,-0.13,2.85,-0.86,-0.95,-25.49,-12.6,-18.75,1.32,-0.22,-2.49,0.0541
0.23,1.04,-0.13,2.64,-0.6,-0.43,-25.78,-14.06,-18.16,1.32,-0.22,-2.43,0.0543
0.23,1.04,-0.13,2.88,-0.21,-0.5,-26.07,-13.18,-18.46,1.32,-0.22,-2.47,0.0544
0.24,1.04,-0.13,2.59,-0.12,-0.32,-25.49,-13.18,-19.04,1.32,-0.22,-2.47,0.0545
0.24,1.04,-0.13,2.99,-0.61,-0.68,-25.2,-13.77,-18.46,1.31,-0.23,-2.44,0.0547
0.24,1.04,-0.13,3.07,-1.63,-1.31,-26.07,-13.18,-19.34,1.31,-0.23,-2.48,0.0548
0.24,1.04,-0.13,3.13,-1.84,-1.65,-26.37,-13.48,-18.16,1.32,-0.22,-2.46,0.055
0.23,1.04,-0.13,3.04,-1.72,-1.73,-25.49,-13.48,-18.46,1.32,-0.22,-2.45,0.0551
0.24,1.04,-0.13,3.0,-1.17,-1.99,-26.66,-13.18,-18.16,1.32,-0.22,-2.47,0.0552
0.23,1.04,-0.13,2.93,-0.92,-1.59,-26.07,-13.18,-17.87,1.32,-0.21,-2.46,0.0554
0.23,1.04,-0.13,3.2,-1.13,-1.94,-26.37,-13.48,-18.46,1.32,-0.22,-2.46,0.0555
0.23,1.04,-0.13,3.07,-0.85,-1.85,-25.78,-13.77,-18.46,1.32,-0.22,-2.45,0.0556
0.23,1.04,-0.13,3.36,-0.99,-1.79,-26.07,-13.18,-18.46,1.32,-0.21,-2.47,0.0558
0.22,1.04,-0.13,3.47,-1.74,-1.95,-25.49,-12.89,-17.87,1.33,-0.21,-2.47,0.0559
0.22,1.04,-0.14,3.22,-2.04,-1.88,-25.49,-13.18,-18.75,1.33,-0.21,-2.48,0.056
0.22,1.04,-0.14,3.48,-2.18,-1.88,-25.78,-12.89,-18.46,1.33,-0.21,-2.48,0.0562
0.22,1.04,-0.14,3.07,-2.38,-1.57,-25.78,-13.77,-18.46,1.33,-0.21,-2.45,0.0563
0.21,1.04,-0.14,3.06,-1.79,-1.0,-25.2,-12.89,-18.16,1.33,-0.2,-2.48,0.0564
0.22,1.04,-0.15,2.69,-0.5,-0.4,-25.49,-12.89,-18.75,1.32,-0.2,-2.49,0.0566
0.22,1.04,-0.13,2.56,-0.16,-0.3,-26.07,-13.18,-18.16,1.33,-0.2,-2.47,0.0567
0.22,1.04,-0.13,3.03,-0.1,0.01,-25.49,-13.48,-18.16,1.33,-0.21,-2.46,0.0568
0.22,1.04,-0.13,3.07,-0.2,-0.15,-25.2,-13.18,-18.16,1.33,-0.21,-2.46,0.0569
0.22,1.04,-0.14,2.88,-0.35,-0.37,-26.07,-12.6,-18.16,1.33,-0.21,-2.49,0.0571
0.22,1.04,-0.14,2.82,0.43,-0.14,-26.07,-12.89,-19.04,1.32,-0.21,-2.49,0.0572
0.22,1.04,-0.14,2.43,-0.04,-0.09,-25.2,-12.6,-18.46,1.32,-0.21,-2.49,0.0573
0.22,1.05,-0.15,2.3,0.35,-0.08,-26.37,-13.48,-17.87,1.32,-0.2,-2.46,0.0575
0.22,1.04,-0.14,2.23,0.18,0.1,-25.2,-13.48,-18.16,1.33,-0.21,-2.45,0.0576
0.23,1.04,-0.13,2.39,0.37,-0.14,-26.07,-13.18,-18.46,1.32,-0.21,-2.47,0.0577
0.23,1.04,-0.13,2.78,-0.71,-0.47,-25.2,-13.18,-18.75,1.32,-0.21,-2.47,0.0579
0.23,1.04,-0.13,3.07,-0.64,-0.74,-26.37,-12.89,-18.16,1.32,-0.21,-2.48,0.058
0.23,1.04,-0.13,3.11,-1.4,-0.89,-26.07,-12.89,-18.46,1.33,-0.21,-2.48,0.0581
0.22,1.04,-0.14,2.83,-1.09,-0.54,-25.49,-13.48,-18.46,1.33,-0.21,-2.46,0.0583
0.22,1.04,-0.15,2.64,-0.38,-0.18,-25.49,-13.18,-19.04,1.32,-0.21,-2.48,0.0584
0.23,1.04,-0.13,2.35,-0.18,0.36,-25.78,-14.06,-18.46,1.32,-0.21,-2.44,0.0585
0.23,1.04,-0.13,2.06,0.72,0.72,-25.78,-13.18,-18.46,1.33,-0.21,-2.47,0.0586
0.23,1.04,-0.13,2.43,0.62,0.61,-25.49,-13.18,-18.75,1.32,-0.22,-2.47,0.0588
0.23,1.04,-0.13,2.95,0.96,0.86,-25.78,-12.89,-18.75,1.32,-0.21,-2.48,0.0589
0.23,1.04,-0.13,2.49,0.98,0.38,-25.78,-13.18,-18.46,1.33,-0.21,-2.47,0.059
0.24,1.04,-0.13,2.75,0.36,-0.11,-26.37,-13.48,-18.46,1.32,-0.22,-2.46,0.0592
0.24,1.04,-0.13,3.07,0.21,-0.41,-26.07,-13.18,-18.75,1.32,-0.22,-2.47,0.0593
0.23,1.04,-0.14,2.61,-0.34,-0.41,-25.2,-12.6,-18.75,1.32,-0.22,-2.49,0.0594
0.23,1.04,-0.14,2.75,-0.69,-0.82,-25.2,-13.18,-17.58,1.32,-0.22,-2.45,0.0595
0.24,1.04,-0.13,2.69,-0.46,-0.77,-26.66,-13.18,-18.46,1.32,-0.22,-2.47,0.0597
0.23,1.04,-0.14,2.7,-0.82,-0.72,-25.78,-14.06,-18.16,1.32,-0.22,-2.43,0.0598
0.24,1.03,-0.13,2.61,-0.83,-0.87,-26.07,-13.48,-18.16,1.32,-0.22,-2.45,0.0599
0.23,1.04,-0.13,2.75,-0.59,-0.69,-25.78,-13.18,-18.16,1.32,-0.22,-2.46,0.0601
0.23,1.04,-0.14,2.73,-0.58,-0.5,-26.37,-13.48,-18.16,1.32,-0.21,-2.46,0.0602
0.23,1.04,-0.12,2.99,-0.89,-0.69,-25.49,-12.89,-17.58,1.32,-0.22,-2.46,0.0603
0.23,1.04,-0.14,2.66,0.53,-0.37,-25.49,-13.18,-19.04,1.32,-0.22,-2.48,0.0605
0.23,1.04,-0.13,2.59,-0.74,-1.07,-25.2,-13.18,-18.16,1.32,-0.22,-2.46,0.0606
0.23,1.04,-0.13,2.99,-1.52,-1.69,-25.49,-14.06,-18.75,1.32,-0.22,-2.44,0.0607
0.23,1.04,-0.13,3.06,-0.72,-1.05,-26.07,-13.48,-18.16,1.32,-0.21,-2.46,0.0609
0.23,1.04,-0.13,3.19,-1.24,-1.47,-26.37,-12.89,-18.16,1.32,-0.22,-2.48,0.061
0.23,1.04,-0.13,3.21,-0.05,-1.27,-26.07,-13.48,-18.46,1.32,-0.21,-2.46,0.0611
0.23,1.04,-0.13,3.07,-0.56,-1.3,-26.37,-13.77,-18.46,1.32,-0.22,-2.45,0.0613
0.24,1.04,-0.14,3.16,-0.48,-1.35,-25.78,-12.89,-18.46,1.31,-0.22,-2.48,0.0614
0.23,1.04,-0.14,2.82,-1.14,-1.5,-26.07,-13.48,-18.75,1.32,-0.22,-2.47,0.0615
0.23,1.04,-0.14,3.05,-1.86,-1.91,-26.37,-13.77,-18.46,1.32,-0.22,-2.45,0.0617
0.23,1.04,-0.13,3.15,-2.56,-2.4,-25.78,-12.6,-18.75,1.33,-0.21,-2.49,0.0618
0.23,1.04,-0.13,3.2,-2.84,-2.43,-26.07,-13.18,-18.46,1.32,-0.21,-2.47,0.0619
0.22,1.04,-0.14,3.4,-2.53,-2.04,-25.78,-13.18,-17.87,1.32,-0.21,-2.46,0.062
0.21,1.04,-0.14,2.94,-2.09,-1.6,-26.37,-13.48,-18.75,1.33,-0.2,-2.47,0.0622
0.21,1.04,-0.14,2.59,-1.04,-1.28,-25.78,-12.89,-18.75,1.33,-0.2,-2.49,0.0623
0.21,1.04,-0.14,2.56,-0.44,-0.64,-25.78,-12.89,-18.46,1.33,-0.2,-2.49,0.0624
0.22,1.04,-0.14,2.48,0.06,-0.77,-25.78,-13.18,-18.16,1.33,-0.2,-2.47,0.0626
0.22,1.05,-0.13,2.91,0.69,-0.37,-25.78,-12.89,-18.16,1.33,-0.2,-2.48,0.0627
0.22,1.04,-0.14,2.81,0.99,-0.55,-25.78,-12.89,-18.75,1.33,-0.21,-2.49,0.0628
0.22,1.04,-0.14,2.85,-0.01,-1.05,-26.07,-13.77,-18.46,1.32,-0.21,-2.46,0.063
0.22,1.04,-0.15,2.49,-2.67,-2.14,-25.49,-12.89,-18.75,1.32,-0.2,-2.49,0.0631
0.21,1.04,-0.15,2.11,-1.76,-0.95,-25.49,-12.3,-18.46,1.33,-0.2,-2.51,0.0632
0.22,1.04,-0.14,2.03,-2.69,-1.47,-25.49,-12.89,-18.46,1.33,-0.2,-2.48,0.0633
0.21,1.04,-0.14,1.87,-3.84,-1.55,-26.66,-13.18,-18.46,1.34,-0.2,-2.48,0.0635
0.21,1.04,-0.14,2.53,-2.77,-1.28,-26.07,-13.77,-18.75,1.33,-0.2,-2.46,0.0636
0.21,1.05,-0.13,2.78,-2.95,-1.15,-25.78,-13.18,-17.87,1.34,-0.2,-2.46,0.0637
0.2,1.04,-0.13,3.23,-1.75,-0.34,-26.37,-13.48,-18.16,1.34,-0.19,-2.47,0.0639
0.2,1.05,-0.13,2.92,-0.11,1.25,-25.2,-12.89,-18.46,1.34,-0.19,-2.49,0.064
0.21,1.04,-0.13,2.78,0.7,1.75,-25.49,-13.18,-18.46,1.34,-0.2,-2.48,0.0641
0.22,1.04,-0.14,2.69,2.01,2.46,-26.37,-12.89,-17.87,1.33,-0.2,-2.48,0.0642
0.22,1.04,-0.14,2.33,3.23,2.95,-25.78,-12.6,-18.75,1.33,-0.21,-2.5,0.0644
0.23,1.04,-0.13,1.88,2.46,2.67,-25.49,-12.89,-18.75,1.32,-0.21,-2.48,0.0645
0.23,1.04,-0.13,1.97,3.72,2.63,-26.07,-13.77,-18.75,1.32,-0.22,-2.45,0.0646
0.24,1.04,-0.14,2.07,3.06,1.98,-25.2,-13.18,-18.46,1.31,-0.23,-2.46,0.0648
0.24,1.04,-0.13,2.32,1.69,0.87,-26.07,-12.89,-18.46,1.31,-0.23,-2.47,0.0649
0.24,1.04,-0.12,2.7,1.67,0.11,-26.07,-13.48,-17.58,1.31,-0.23,-2.44,0.065
0.24,1.04,-0.12,2.62,0.53,-0.53,-26.07,-13.18,-18.46,1.31,-0.23,-2.46,0.0651
0.24,1.04,-0.13,3.11,-1.1,-1.82,-26.07,-13.18,-18.46,1.31,-0.23,-2.47,0.0653
0.24,1.03,-0.12,3.3,-1.98,-2.48,-25.2,-13.77,-18.75,1.32,-0.23,-2.44,0.0654
0.23,1.04,-0.12,3.71,-2.72,-2.71,-25.49,-14.06,-18.16,1.32,-0.22,-2.43,0.0655
0.23,1.04,-0.13,3.92,-3.47,-3.15,-25.78,-12.6,-19.04,1.32,-0.22,-2.5,0.0657
0.23,1.04,-0.13,3.59,-4.58,-3.36,-26.07,-13.18,-18.46,1.33,-0.21,-2.47,0.0658
0.22,1.04,-0.14,3.24,-5.03,-3.11,-25.78,-13.18,-18.75,1.32,-0.21,-2.48,0.0659
0.22,1.04,-0.14,2.59,-3.0,-2.0,-25.49,-12.89,-18.16,1.33,-0.2,-2.48,0.0661
0.22,1.04,-0.13,2.56,-2.24,-1.21,-25.49,-13.48,-18.46,1.33,-0.21,-2.46,0.0662
0.22,1.04,-0.13,2.53,-0.68,-0.47,-25.49,-13.18,-18.75,1.33,-0.2,-2.48,0.0663
0.22,1.04,-0.13,2.49,-0.05,-0.15,-26.37,-13.18,-18.46,1.33,-0.2,-2.48,0.0665
0.22,1.04,-0.13,2.6,1.29,0.54,-26.37,-14.06,-18.16,1.33,-0.21,-2.44,0.0666
0.22,1.04,-0.13,2.78,1.44,0.7,-25.78,-13.48,-18.16,1.33,-0.2,-2.46,0.0667
0.22,1.05,-0.14,2.79,1.62,0.85,-25.78,-12.89,-17.87,1.32,-0.21,-2.47,0.0668
0.23,1.04,-0.13,2.56,2.15,1.37,-25.78,-12.6,-18.16,1.32,-0.21,-2.48,0.067
0.23,1.04,-0.13,2.59,1.95,0.99,-25.78,-13.18,-18.46,1.32,-0.21,-2.47,0.0671
0.23,1.04,-0.13,2.76,1.07,0.79,-25.49,-13.77,-18.16,1.32,-0.22,-2.44,0.0672
0.23,1.04,-0.13,2.75,1.02,0.72,-25.78,-13.18,-19.04,1.32,-0.22,-2.48,0.0673
0.23,1.04,-0.13,3.0,0.66,0.6,-25.78,-13.18,-18.46,1.32,-0.22,-2.47,0.0675
0.24,1.04,-0.13,2.92,-0.12,-0.02,-25.78,-13.18,-18.16,1.32,-0.22,-2.46,0.0676
0.24,1.04,-0.13,2.82,-0.02,0.08,-26.37,-13.18,-18.16,1.32,-0.22,-2.47,0.0677
0.24,1.04,-0.13,2.85,-1.05,-0.25,-25.78,-13.18,-17.87,1.32,-0.22,-2.46,0.0679
0.23,1.04,-0.13,2.8,-1.53,-0.54,-25.49,-13.48,-18.75,1.32,-0.22,-2.46,0.068
0.24,1.04,-0.14,2.75,-1.26,-0.66,-26.37,-13.48,-17.87,1.31,-0.22,-2.45,0.0681
0.23,1.04,-0.13,2.94,-1.03,-0.7,-25.2,-12.6,-18.46,1.32,-0.22,-2.48,0.0683
0.23,1.04,-0.13,2.78,-0.97,-0.33,-26.66,-13.48,-18.75,1.32,-0.22,-2.47,0.0685
0.24,1.04,-0.14,2.43,-0.97,-0.36,-26.07,-12.6,-18.75,1.32,-0.22,-2.49,0.0686
0.23,1.04,-0.13,2.4,-0.11,0.47,-25.49,-13.77,-18.46,1.32,-0.22,-2.45,0.0688
0.24,1.04,-0.12,2.4,-0.18,0.37,-26.07,-13.48,-18.46,1.32,-0.22,-2.46,0.0689
0.24,1.04,-0.13,2.22,0.46,0.66,-26.37,-13.77,-18.16,1.32,-0.22,-2.44,0.069
0.24,1.04,-0.13,2.42,-0.12,0.56,-26.07,-13.77,-18.16,1.31,-0.23,-2.44,0.0691
0.24,1.03,-0.12,2.23,-0.31,0.61,-26.07,-12.6,-18.46,1.31,-0.23,-2.48,0.0693
0.24,1.04,-0.13,2.49,0.24,0.61,-25.78,-12.89,-17.87,1.31,-0.23,-2.46,0.0694
0.25,1.03,-0.12,2.34,-0.24,0.42,-26.37,-13.77,-18.46,1.31,-0.23,-2.44,0.0695
0.25,1.04,-0.13,2.49,-0.35,-0.01,-25.78,-14.06,-17.87,1.31,-0.23,-2.42,0.0697
0.25,1.03,-0.13,3.01,-0.21,-0.03,-25.78,-13.48,-18.46,1.31,-0.23,-2.45,0.0698
0.25,1.04,-0.12,2.85,-0.24,-0.26,-26.07,-13.48,-18.16,1.31,-0.23,-2.45,0.0699
0.25,1.04,-0.13,3.08,0.14,-0.38,-25.49,-13.48,-18.46,1.31,-0.24,-2.45,0.07
0.26,1.04,-0.13,3.2,-1.41,-1.11,-26.37,-13.48,-18.46,1.3,-0.24,-2.45,0.0702
0.25,1.04,-0.13,3.42,-0.27,-0.79,-25.2,-13.48,-18.16,1.31,-0.23,-2.44,0.0703
0.25,1.04,-0.12,3.48,-0.65,-1.06,-25.49,-13.18,-18.75,1.31,-0.23,-2.46,0.0704
0.25,1.04,-0.13,3.36,-0.72,-0.92,-25.78,-13.18,-19.04,1.31,-0.23,-2.47,0.0706
0.25,1.04,-0.13,2.52,-0.48,-0.65,-25.78,-13.48,-18.16,1.31,-0.23,-2.45,0.0707
0.25,1.04,-0.13,2.92,0.4,-0.24,-26.07,-13.48,-17.87,1.31,-0.23,-2.45,0.0708
0.25,1.04,-0.13,2.66,0.23,0.05,-24.61,-12.89,-18.46,1.31,-0.23,-2.46,0.0709
0.25,1.04,-0.13,2.44,0.29,-0.35,-25.78,-13.48,-18.75,1.31,-0.23,-2.46,0.0711
0.25,1.04,-0.13,2.62,-0.09,-0.38,-25.49,-14.06,-18.16,1.31,-0.23,-2.43,0.0712
0.25,1.03,-0.13,2.78,0.76,-0.04,-26.37,-13.48,-17.58,1.31,-0.23,-2.44,0.0713
0.25,1.03,-0.13,2.69,0.83,-0.37,-25.78,-14.06,-17.87,1.31,-0.23,-2.42,0.0714
0.25,1.04,-0.12,2.98,0.88,-0.4,-26.07,-13.48,-18.46,1.31,-0.24,-2.45,0.0716
0.25,1.04,-0.13,3.17,1.24,-0.37,-26.66,-13.18,-18.46,1.31,-0.23,-2.47,0.0717
0.25,1.04,-0.13,3.09,1.38,-0.76,-25.78,-13.18,-17.87,1.31,-0.23,-2.45,0.0718
0.24,1.04,-0.13,3.17,1.9,-0.23,-25.78,-12.89,-18.46,1.31,-0.23,-2.47,0.0719
0.25,1.03,-0.12,3.67,0.98,-0.81,-26.37,-12.89,-18.75,1.3,-0.24,-2.47,0.0721
0.26,1.04,-0.13,3.34,-1.4,-2.21,-25.2,-13.18,-18.16,1.3,-0.24,-2.45,0.0722
0.25,1.04,-0.13,3.38,-1.5,-2.33,-26.07,-12.89,-18.46,1.31,-0.23,-2.47,0.0723
0.25,1.03,-0.13,3.43,-2.04,-3.25,-26.37,-13.77,-18.46,1.3,-0.23,-2.45,0.0725
0.25,1.04,-0.11,3.68,-5.75,-5.26,-25.78,-13.18,-18.75,1.31,-0.24,-2.46,0.0726
0.23,1.03,-0.13,4.03,-6.07,-4.81,-25.78,-13.18,-18.16,1.32,-0.22,-2.46,0.0727
0.22,1.04,-0.15,3.78,-4.22,-2.7,-25.2,-13.18,-18.16,1.32,-0.21,-2.47,0.0728
0.21,1.03,-0.14,3.52,0.45,-0.05,-25.78,-13.77,-18.75,1.33,-0.2,-2.46,0.073
0.23,1.05,-0.15,2.38,1.25,0.6,-25.49,-13.18,-18.75,1.32,-0.21,-2.48,0.0731
0.23,1.05,-0.14,1.73,3.04,1.43,-26.37,-13.18,-18.46,1.32,-0.21,-2.47,0.0732
0.22,1.04,-0.12,2.37,5.81,3.69,-25.78,-14.06,-18.75,1.33,-0.21,-2.44,0.0734
0.24,1.03,-0.14,2.76,0.98,2.02,-25.78,-12.6,-18.16,1.3,-0.23,-2.48,0.0735
0.24,1.04,-0.15,2.37,2.41,3.05,-26.07,-13.48,-18.75,1.31,-0.22,-2.47,0.0736
0.25,1.04,-0.14,1.97,4.55,3.2,-25.78,-13.48,-18.16,1.31,-0.23,-2.45,0.0737
0.26,1.03,-0.12,2.56,2.8,1.53,-25.49,-13.18,-17.87,1.3,-0.24,-2.44,0.0739
0.28,1.03,-0.11,3.81,-3.47,-3.43,-25.49,-12.89,-18.46,1.29,-0.26,-2.45,0.074
0.26,1.05,-0.14,3.91,-10.28,-7.55,-25.78,-13.18,-17.87,1.29,-0.25,-2.45,0.0741
0.24,1.04,-0.13,4.3,-15.93,-9.9,-26.07,-13.48,-18.46,1.31,-0.22,-2.46,0.0742
0.22,1.04,-0.13,4.27,-10.88,-6.71,-26.37,-12.89,-18.16,1.33,-0.2,-2.48,0.0744
0.2,1.05,-0.16,3.42,2.2,-0.51,-25.49,-13.18,-18.75,1.34,-0.18,-2.49,0.0745
0.23,1.03,-0.15,3.38,6.23,1.2,-25.49,-12.89,-18.46,1.32,-0.21,-2.48,0.0746
0.23,1.04,-0.15,2.55,3.46,0.05,-25.78,-12.89,-18.46,1.31,-0.21,-2.48,0.0747
0.21,1.04,-0.16,2.55,4.22,1.17,-25.78,-12.89,-18.46,1.32,-0.2,-2.49,0.0749
0.24,1.05,-0.11,1.76,2.17,0.0,-26.07,-13.18,-18.75,1.32,-0.23,-2.46,0.075
0.23,1.03,-0.14,2.92,2.44,-0.64,-25.49,-12.3,-18.75,1.31,-0.22,-2.5,0.0751
0.24,1.05,-0.14,3.04,-2.66,-3.35,-25.49,-13.18,-18.46,1.31,-0.22,-2.47,0.0752
0.22,1.04,-0.13,2.94,-5.02,-4.43,-25.78,-12.89,-18.16,1.33,-0.21,-2.48,0.0754
0.22,1.04,-0.14,3.04,-3.75,-4.04,-26.37,-13.18,-18.75,1.33,-0.2,-2.48,0.0755
0.22,1.04,-0.14,2.92,-6.73,-5.33,-26.07,-13.18,-18.46,1.33,-0.21,-2.48,0.0756
0.21,1.04,-0.14,2.75,-5.97,-5.42,-25.78,-12.01,-18.75,1.34,-0.19,-2.52,0.0758
0.21,1.04,-0.14,2.47,-3.74,-3.94,-25.49,-12.6,-18.16,1.34,-0.19,-2.49,0.0759
0.2,1.05,-0.15,5.72,-0.23,0.73,-25.49,-12.89,-18.46,1.34,-0.19,-2.49,0.076
0.21,1.04,-0.12,3.17,16.23,6.63,-25.49,-12.01,-19.04,1.34,-0.2,-2.52,0.0761
0.22,1.04,-0.13,3.44,-0.69,-2.04,-26.37,-13.18,-18.46,1.33,-0.2,-2.48,0.0763
0.22,1.05,-0.16,2.07,-6.85,-5.06,-26.07,-12.89,-19.04,1.32,-0.21,-2.5,0.0764
0.17,1.04,-0.16,2.36,7.36,2.36,-26.37,-12.6,-18.75,1.35,-0.16,-2.52,0.0765
0.21,1.04,-0.14,1.66,3.84,0.95,-25.49,-12.01,-18.75,1.33,-0.19,-2.52,0.0767
0.21,1.04,-0.14,1.59,2.85,0.0,-25.49,-12.89,-18.16,1.34,-0.19,-2.48,0.0768
0.21,1.04,-0.12,2.11,3.31,0.59,-25.78,-12.6,-18.75,1.34,-0.2,-2.5,0.0769
0.21,1.04,-0.13,1.91,-1.05,-1.21,-26.37,-12.89,-18.75,1.34,-0.2,-2.49,0.077
0.19,1.04,-0.13,2.31,-2.44,-0.32,-26.07,-12.89,-19.34,1.35,-0.18,-2.51,0.0772
0.19,1.06,-0.16,2.42,1.44,0.62,-25.78,-12.3,-19.34,1.34,-0.17,-2.54,0.0773
0.22,1.03,-0.12,2.59,-1.08,0.39,-26.37,-13.48,-19.04,1.33,-0.21,-2.47,0.0774
0.22,1.04,-0.13,3.53,-1.84,0.11,-25.2,-12.6,-18.75,1.33,-0.2,-2.49,0.0776
0.22,1.04,-0.14,3.77,-0.92,0.35,-26.07,-12.89,-18.75,1.33,-0.2,-2.49,0.0777
0.21,1.04,-0.14,3.84,-2.45,-0.62,-26.07,-13.18,-18.46,1.33,-0.2,-2.48,0.0778
0.21,1.05,-0.14,3.46,-2.48,-0.4,-26.07,-12.6,-18.75,1.34,-0.19,-2.5,0.0779
0.21,1.04,-0.15,3.11,-1.34,0.1,-26.95,-12.89,-19.63,1.33,-0.2,-2.51,0.0781
0.21,1.04,-0.14,2.66,-1.51,0.31,-26.07,-13.18,-19.04,1.33,-0.2,-2.49,0.0782
0.22,1.04,-0.14,2.21,-1.5,0.47,-25.2,-12.89,-19.34,1.33,-0.2,-2.49,0.0783
0.23,1.04,-0.13,1.59,-2.94,-0.95,-25.78,-12.6,-19.04,1.32,-0.21,-2.5,0.0784
0.22,1.04,-0.14,1.89,-4.9,-2.17,-25.78,-13.18,-19.04,1.33,-0.21,-2.48,0.0786
0.21,1.04,-0.14,2.14,-1.96,-0.97,-26.07,-12.6,-18.46,1.33,-0.2,-2.5,0.0787
0.22,1.04,-0.14,3.02,-2.21,-0.4,-25.78,-12.6,-18.46,1.33,-0.2,-2.49,0.0788
0.22,1.04,-0.14,3.27,-3.17,-1.32,-25.78,-13.77,-18.16,1.33,-0.2,-2.45,0.079
0.22,1.04,-0.14,3.21,-2.64,-1.01,-26.07,-13.48,-18.46,1.33,-0.2,-2.47,0.0791
0.22,1.04,-0.13,3.34,-2.51,-1.43,-25.78,-12.89,-18.46,1.33,-0.21,-2.48,0.0792
0.21,1.04,-0.15,3.1,-1.48,-0.89,-25.2,-12.6,-19.04,1.33,-0.2,-2.5,0.0793
0.22,1.04,-0.14,2.95,-1.74,-1.32,-25.78,-13.48,-18.16,1.32,-0.21,-2.46,0.0795
0.22,1.04,-0.13,3.03,-0.32,-0.48,-25.49,-12.3,-18.46,1.33,-0.2,-2.5,0.0796
0.21,1.05,-0.14,2.7,-0.3,-0.63,-25.78,-12.3,-18.16,1.33,-0.2,-2.5,0.0797
0.21,1.04,-0.14,2.4,-0.86,-0.55,-25.2,-12.3,-18.46,1.33,-0.2,-2.5,0.0799
0.21,1.04,-0.13,2.37,0.26,-0.28,-25.49,-12.6,-19.04,1.34,-0.2,-2.5,0.08
0.21,1.05,-0.14,2.71,-0.5,-0.67,-25.49,-12.6,-17.87,1.33,-0.2,-2.49,0.0801
0.21,1.04,-0.13,2.69,-0.6,-0.63,-25.49,-12.6,-18.75,1.33,-0.2,-2.5,0.0802
0.22,1.05,-0.13,3.01,-1.08,-0.92,-26.07,-13.18,-19.34,1.33,-0.2,-2.49,0.0804
0.21,1.04,-0.14,2.77,-1.48,-0.85,-25.2,-12.3,-18.46,1.33,-0.2,-2.5,0.0805
0.21,1.05,-0.14,2.75,-1.18,-0.58,-25.2,-12.6,-18.46,1.33,-0.2,-2.49,0.0806
0.21,1.04,-0.14,2.8,-1.14,-0.5,-26.07,-13.48,-18.16,1.33,-0.2,-2.46,0.0807
0.21,1.05,-0.14,2.95,-0.5,-0.27,-25.49,-12.6,-18.16,1.33,-0.2,-2.49,0.0809
0.21,1.04,-0.14,2.66,-0.34,0.29,-26.37,-13.18,-18.46,1.33,-0.2,-2.48,0.081
0.21,1.04,-0.14,2.84,-0.03,0.81,-26.07,-13.18,-18.16,1.33,-0.2,-2.47,0.0811
0.22,1.04,-0.14,2.22,0.47,0.86,-25.78,-13.18,-18.46,1.33,-0.2,-2.48,0.0812
0.22,1.04,-0.14,2.29,0.56,1.01,-26.66,-13.48,-18.16,1.33,-0.21,-2.46,0.0814
0.22,1.04,-0.14,2.53,1.06,1.03,-25.49,-13.18,-17.58,1.32,-0.21,-2.46,0.0815
0.23,1.04,-0.14,2.79,0.5,0.75,-25.49,-13.18,-18.46,1.32,-0.21,-2.47,0.0816
0.22,1.04,-0.14,2.24,0.31,0.36,-26.37,-12.6,-19.04,1.32,-0.21,-2.5,0.0817
0.23,1.05,-0.13,2.43,0.23,0.24,-25.49,-12.6,-18.75,1.32,-0.21,-2.49,0.0819
0.23,1.04,-0.14,2.77,-0.5,0.05,-25.49,-12.6,-18.75,1.32,-0.21,-2.49,0.082
0.23,1.04,-0.14,2.62,-1.93,-0.59,-25.49,-13.18,-17.87,1.32,-0.21,-2.46,0.0821
0.22,1.04,-0.14,2.57,-1.79,-0.89,-25.78,-13.48,-18.75,1.32,-0.21,-2.47,0.0823
0.23,1.04,-0.14,2.71,-1.48,-0.91,-26.66,-13.77,-18.75,1.32,-0.21,-2.46,0.0824
0.23,1.04,-0.14,2.79,-0.89,-0.47,-26.07,-13.48,-18.46,1.32,-0.21,-2.46,0.0825
0.23,1.04,-0.13,2.52,0.12,-0.33,-26.07,-13.48,-18.75,1.32,-0.21,-2.47,0.0826
0.22,1.04,-0.13,2.65,1.66,1.0,-26.07,-13.18,-17.87,1.33,-0.21,-2.46,0.0828
0.23,1.04,-0.14,2.45,1.2,0.63,-25.78,-13.18,-18.46,1.32,-0.21,-2.47,0.0829
0.24,1.04,-0.13,2.32,0.95,0.11,-25.78,-12.89,-18.75,1.32,-0.22,-2.48,0.083
0.24,1.04,-0.13,2.77,-0.06,0.03,-26.07,-12.89,-19.04,1.32,-0.22,-2.48,0.0832
0.23,1.04,-0.13,2.75,-0.66,-0.5,-26.07,-12.89,-18.16,1.32,-0.22,-2.48,0.0833
0.23,1.04,-0.13,2.98,-1.5,-1.1,-25.49,-13.18,-18.75,1.32,-0.22,-2.47,0.0834
0.23,1.04,-0.13,3.17,-1.56,-1.05,-25.49,-13.18,-18.46,1.32,-0.22,-2.47,0.0835
0.23,1.04,-0.13,2.85,-1.54,-1.02,-26.07,-12.89,-18.46,1.32,-0.22,-2.48,0.0837
0.23,1.04,-0.13,2.73,-0.72,-0.5,-26.66,-13.48,-18.75,1.32,-0.22,-2.47,0.0838
0.23,1.04,-0.13,3.07,0.21,-0.29,-25.78,-13.77,-17.87,1.32,-0.22,-2.44,0.0839
0.24,1.04,-0.14,2.85,-0.07,-0.66,-26.37,-14.06,-17.87,1.31,-0.22,-2.43,0.084
0.23,1.04,-0.13,2.66,0.58,-0.54,-26.07,-12.89,-18.46,1.32,-0.22,-2.48,0.0842
0.23,1.04,-0.13,3.15,0.79,-0.59,-26.37,-13.77,-18.46,1.32,-0.22,-2.45,0.0843
0.23,1.04,-0.14,3.05,0.41,-0.45,-26.07,-13.48,-18.75,1.32,-0.22,-2.47,0.0844
0.24,1.04,-0.13,3.3,0.07,-1.05,-25.49,-13.77,-18.46,1.32,-0.22,-2.44,0.0846
0.23,1.04,-0.13,3.52,-0.66,-1.37,-26.07,-12.6,-19.04,1.32,-0.21,-2.5,0.0847
0.23,1.04,-0.14,3.46,-1.44,-1.7,-26.07,-13.48,-18.46,1.32,-0.22,-2.46,0.0848
0.23,1.04,-0.14,3.15,-1.88,-1.95,-26.37,-13.18,-19.04,1.32,-0.22,-2.48,0.0851
0.23,1.04,-0.14,3.0,-2.68,-1.93,-25.78,-12.89,-17.58,1.32,-0.21,-2.47,0.0852
0.23,1.04,-0.14,2.94,-2.37,-2.16,-25.78,-13.77,-18.75,1.32,-0.21,-2.46,0.0854
0.23,1.04,-0.13,2.88,-2.73,-2.25,-25.78,-12.89,-19.04,1.32,-0.21,-2.49,0.0855
0.22,1.04,-0.13,2.94,-2.39,-2.24,-25.49,-13.18,-18.46,1.33,-0.21,-2.47,0.0856
0.22,1.04,-0.14,2.82,-1.58,-1.64,-26.07,-13.18,-17.58,1.32,-0.21,-2.46,0.0857
0.22,1.04,-0.14,2.85,-1.33,-1.3,-25.78,-13.48,-18.16,1.33,-0.21,-2.46,0.0859
0.22,1.04,-0.14,2.92,-0.88,-0.89,-26.07,-12.89,-18.75,1.33,-0.21,-2.49,0.086
0.22,1.04,-0.14,2.91,-0.09,-0.05,-24.9,-12.3,-18.16,1.33,-0.2,-2.5,0.0861
0.22,1.04,-0.14,2.7,0.68,0.24,-25.49,-12.6,-18.16,1.33,-0.2,-2.49,0.0862
0.22,1.04,-0.13,2.64,-0.06,0.24,-25.49,-13.18,-18.16,1.32,-0.21,-2.46,0.0864
0.22,1.04,-0.14,2.74,-0.26,-0.17,-26.07,-13.48,-18.75,1.32,-0.21,-2.47,0.0865
0.22,1.04,-0.14,3.03,-0.82,-0.18,-26.37,-12.89,-18.46,1.33,-0.21,-2.49,0.0866
0.22,1.04,-0.14,2.77,-0.8,-0.29,-26.07,-12.6,-18.46,1.32,-0.21,-2.49,0.0867
0.22,1.04,-0.14,2.78,-1.08,-0.14,-26.07,-13.18,-18.16,1.33,-0.21,-2.47,0.0869
0.23,1.04,-0.14,2.72,-1.17,-0.27,-26.07,-13.48,-17.87,1.32,-0.21,-2.45,0.087
0.22,1.04,-0.15,2.4,-0.25,0.11,-25.78,-13.48,-18.75,1.32,-0.21,-2.47,0.0871
0.23,1.05,-0.14,2.58,1.05,0.49,-25.78,-13.18,-18.46,1.32,-0.21,-2.47,0.0872
0.23,1.04,-0.14,2.34,-0.02,0.31,-26.07,-14.06,-18.75,1.32,-0.22,-2.45,0.0874
0.23,1.04,-0.14,2.82,0.06,0.21,-25.2,-13.48,-18.46,1.32,-0.21,-2.46,0.0875
0.23,1.04,-0.14,2.91,-0.21,-0.35,-25.78,-12.3,-18.16,1.32,-0.21,-2.5,0.0876
0.23,1.04,-0.13,2.94,-0.42,-0.71,-25.49,-13.18,-18.46,1.32,-0.21,-2.47,0.0878
0.23,1.04,-0.13,2.95,0.04,-0.59,-26.37,-13.18,-18.16,1.32,-0.21,-2.47,0.0879
0.23,1.04,-0.14,3.18,-0.69,-0.72,-25.78,-12.3,-18.75,1.32,-0.22,-2.5,0.088
0.23,1.04,-0.14,2.85,-0.92,-0.73,-25.78,-13.18,-18.75,1.32,-0.22,-2.47,0.0882
0.22,1.04,-0.14,2.42,-0.03,-0.42,-26.07,-13.77,-18.75,1.32,-0.21,-2.46,0.0883
0.23,1.04,-0.14,2.68,-0.66,-0.98,-26.95,-13.18,-19.63,1.32,-0.22,-2.49,0.0884
0.23,1.04,-0.13,2.75,-0.4,-0.85,-25.78,-13.18,-18.46,1.32,-0.21,-2.47,0.0885
0.23,1.04,-0.14,2.83,-0.37,-0.76,-26.37,-12.89,-18.16,1.32,-0.21,-2.48,0.0887
0.23,1.04,-0.14,2.69,0.55,-0.3,-25.49,-13.48,-18.75,1.32,-0.21,-2.46,0.0888
0.23,1.04,-0.14,2.69,0.89,-0.27,-26.07,-13.18,-19.63,1.32,-0.21,-2.49,0.0889
0.23,1.04,-0.14,2.98,-0.29,-0.32,-26.37,-13.18,-18.75,1.32,-0.22,-2.48,0.0891
0.23,1.04,-0.14,2.73,-0.48,-0.43,-26.07,-13.18,-19.04,1.32,-0.22,-2.48,0.0892
0.23,1.04,-0.14,3.11,-0.69,-0.69,-25.78,-13.18,-18.46,1.32,-0.22,-2.47,0.0893
0.23,1.04,-0.14,2.96,-1.24,-0.89,-26.07,-12.89,-18.16,1.32,-0.22,-2.48,0.0894
0.23,1.04,-0.13,2.74,-1.69,-1.15,-25.49,-13.18,-18.75,1.32,-0.21,-2.47,0.0896
0.23,1.04,-0.14,2.92,-2.01,-1.05,-25.78,-13.77,-17.58,1.32,-0.21,-2.44,0.0897
0.22,1.04,-0.14,2.92,-1.37,-0.4,-26.66,-13.77,-18.16,1.33,-0.21,-2.45,0.0898
0.22,1.04,-0.14,2.56,-0.68,0.07,-25.78,-13.18,-18.46,1.32,-0.21,-2.47,0.0899
0.23,1.04,-0.14,2.44,0.21,0.73,-25.78,-13.48,-18.46,1.32,-0.21,-2.46,0.0901
0.23,1.04,-0.13,2.53,0.53,0.68,-25.49,-12.89,-18.46,1.32,-0.22,-2.48,0.0902
0.23,1.04,-0.13,2.52,0.38,0.74,-26.07,-13.18,-18.46,1.32,-0.22,-2.47,0.0903
0.24,1.04,-0.14,2.3,0.66,0.98,-25.49,-13.18,-18.75,1.31,-0.22,-2.47,0.0904
0.24,1.04,-0.14,2.41,0.39,0.63,-25.78,-13.48,-18.16,1.31,-0.22,-2.45,0.0906
0.24,1.04,-0.13,2.63,0.72,0.31,-25.49,-13.18,-17.87,1.32,-0.22,-2.46,0.0907
0.24,1.04,-0.13,2.45,0.03,0.24,-26.07,-13.48,-18.16,1.32,-0.22,-2.45,0.0908
0.24,1.04,-0.13,2.6,-0.6,-0.3,-25.49,-13.48,-17.87,1.32,-0.22,-2.45,0.0909
0.24,1.04,-0.14,2.78,0.18,0.13,-26.37,-13.77,-18.16,1.31,-0.22,-2.45,0.0911
0.24,1.04,-0.13,2.75,-0.53,-0.23,-26.07,-12.89,-19.04,1.32,-0.22,-2.49,0.0912
0.24,1.03,-0.14,3.1,-0.02,-0.43,-26.07,-13.48,-18.75,1.31,-0.23,-2.46,0.0913
0.24,1.04,-0.13,3.13,-0.34,-0.59,-25.49,-13.18,-18.16,1.31,-0.23,-2.46,0.0915
0.24,1.04,-0.14,2.72,0.11,-0.05,-25.49,-13.48,-18.16,1.31,-0.22,-2.45,0.0916
0.25,1.04,-0.14,2.78,-0.4,-0.5,-26.66,-13.77,-18.75,1.3,-0.23,-2.46,0.0917
0.24,1.04,-0.13,2.98,-0.25,-0.21,-26.07,-13.18,-18.46,1.31,-0.23,-2.47,0.0918
0.24,1.04,-0.13,2.72,0.08,-0.13,-26.66,-13.48,-18.16,1.31,-0.23,-2.45,0.092
0.24,1.04,-0.14,2.85,-0.26,-0.59,-26.07,-12.89,-18.16,1.31,-0.23,-2.47,0.0921
0.24,1.04,-0.13,2.7,-0.74,-0.62,-26.37,-13.48,-18.16,1.31,-0.23,-2.45,0.0922
0.24,1.04,-0.13,2.7,-0.71,-0.62,-26.37,-13.48,-19.04,1.31,-0.23,-2.47,0.0923
0.24,1.04,-0.13,2.85,-1.22,-0.8,-26.07,-13.18,-17.87,1.31,-0.23,-2.46,0.0925
0.24,1.04,-0.14,3.04,-0.98,-0.92,-25.49,-13.18,-18.16,1.31,-0.23,-2.46,0.0926
0.24,1.04,-0.14,2.94,-0.55,-0.93,-26.07,-14.06,-17.87,1.31,-0.23,-2.43,0.0927
0.24,1.03,-0.14,2.79,-0.85,-0.62,-25.78,-13.18,-18.16,1.31,-0.23,-2.46,0.0929
0.24,1.04,-0.13,3.1,-1.07,-1.1,-25.78,-13.48,-18.46,1.31,-0.23,-2.45,0.093
0.24,1.04,-0.13,3.33,-0.76,-0.67,-25.78,-13.77,-18.16,1.31,-0.23,-2.44,0.0931
0.24,1.04,-0.14,2.88,-1.85,-0.9,-26.37,-13.77,-18.46,1.31,-0.22,-2.45,0.0932
0.24,1.04,-0.13,2.7,-0.72,-0.81,-25.49,-13.48,-18.16,1.31,-0.23,-2.45,0.0934
0.25,1.03,-0.13,3.05,-1.7,-1.25,-26.37,-13.48,-18.16,1.31,-0.23,-2.45,0.0935
0.24,1.04,-0.14,3.1,-1.58,-0.82,-26.07,-13.48,-17.29,1.31,-0.22,-2.44,0.0936
0.24,1.04,-0.13,2.87,-0.43,-0.25,-26.07,-13.18,-18.75,1.31,-0.23,-2.47,0.0938
0.24,1.04,-0.13,2.61,-0.95,-0.12,-26.07,-13.77,-17.87,1.31,-0.23,-2.44,0.0939
0.24,1.04,-0.14,2.6,0.65,0.39,-26.07,-13.18,-18.46,1.31,-0.22,-2.47,0.094
0.24,1.04,-0.14,2.59,0.96,0.8,-25.78,-14.06,-18.16,1.31,-0.22,-2.43,0.0941
0.25,1.04,-0.13,2.56,0.51,0.52,-26.37,-14.06,-18.75,1.31,-0.23,-2.44,0.0942
0.25,1.04,-0.14,2.62,1.01,0.53,-25.49,-13.48,-17.87,1.31,-0.23,-2.44,0.0944
0.25,1.04,-0.13,2.56,0.43,0.11,-26.66,-14.36,-19.34,1.3,-0.24,-2.44,0.0945
0.25,1.04,-0.13,2.65,0.16,-0.07,-25.78,-13.18,-18.16,1.3,-0.23,-2.46,0.0946
0.25,1.04,-0.14,2.66,-0.15,-0.46,-26.37,-13.48,-18.46,1.31,-0.23,-2.46,0.0948
0.25,1.04,-0.13,2.68,-0.68,-0.54,-26.37,-13.48,-18.16,1.3,-0.24,-2.45,0.0949
0.25,1.03,-0.13,2.83,-0.53,-0.71,-25.78,-13.18,-17.87,1.31,-0.23,-2.45,0.0951
0.25,1.04,-0.14,3.02,-0.64,-0.68,-26.07,-13.18,-18.46,1.31,-0.23,-2.47,0.0952
0.25,1.04,-0.13,2.73,-1.04,-0.75,-25.78,-13.48,-18.46,1.3,-0.24,-2.45,0.0953
0.24,1.04,-0.13,2.52,-0.79,-0.43,-26.37,-14.36,-18.46,1.31,-0.23,-2.43,0.0955
0.25,1.04,-0.13,2.56,-1.63,-1.07,-26.07,-13.48,-19.04,1.31,-0.23,-2.46,0.0956
0.25,1.04,-0.13,2.77,-0.57,-0.43,-25.78,-14.36,-18.46,1.31,-0.23,-2.42,0.0957
0.25,1.04,-0.14,2.64,-0.87,-0.4,-26.37,-14.36,-18.46,1.31,-0.23,-2.43,0.0959
0.25,1.04,-0.13,2.54,-1.53,-0.81,-26.37,-13.77,-19.04,1.3,-0.23,-2.45,0.096
0.25,1.04,-0.14,2.62,-0.3,-0.17,-26.37,-13.48,-17.58,1.3,-0.23,-2.44,0.0961
0.25,1.04,-0.13,3.11,-0.16,-0.05,-25.78,-13.77,-17.87,1.31,-0.23,-2.43,0.0962
0.25,1.04,-0.13,2.78,-0.22,0.6,-26.37,-13.77,-18.46,1.3,-0.24,-2.45,0.0964
0.25,1.04,-0.13,2.69,-0.08,0.84,-26.37,-13.77,-18.16,1.3,-0.23,-2.44,0.0965
0.25,1.03,-0.13,2.36,-0.43,0.24,-25.2,-13.77,-18.16,1.31,-0.23,-2.43,0.0966
0.25,1.04,-0.13,2.66,-0.01,0.56,-26.37,-14.06,-18.16,1.31,-0.23,-2.43,0.0967
0.26,1.04,-0.13,2.31,-0.39,0.41,-26.95,-14.06,-17.87,1.3,-0.24,-2.43,0.0969
0.25,1.03,-0.13,2.3,0.09,0.3,-25.78,-14.06,-17.87,1.3,-0.24,-2.42,0.097
0.26,1.03,-0.13,2.32,-0.05,0.14,-26.66,-14.06,-18.75,1.3,-0.24,-2.44,0.0971
0.26,1.04,-0.13,2.3,-0.26,-0.16,-26.07,-14.06,-17.87,1.3,-0.24,-2.42,0.0973
0.26,1.04,-0.13,2.37,-1.11,-0.6,-25.78,-13.48,-18.75,1.3,-0.24,-2.45,0.0974
0.26,1.04,-0.13,2.76,-0.52,-0.42,-26.37,-13.77,-18.46,1.3,-0.24,-2.44,0.0975
0.26,1.04,-0.13,2.62,-0.19,0.24,-25.49,-14.36,-18.46,1.3,-0.24,-2.42,0.0976
0.26,1.04,-0.13,1.91,0.07,0.18,-25.78,-14.06,-18.46,1.3,-0.24,-2.43,0.0978
0.26,1.04,-0.12,2.68,0.1,-0.27,-26.07,-13.77,-19.04,1.3,-0.25,-2.45,0.0979
0.26,1.03,-0.12,2.98,-0.25,-0.83,-26.07,-13.48,-18.46,1.3,-0.25,-2.45,0.098
0.26,1.04,-0.13,3.26,-1.15,-1.36,-25.78,-14.06,-18.46,1.3,-0.24,-2.43,0.0982
0.26,1.04,-0.13,2.99,-0.34,-1.05,-26.66,-13.48,-18.16,1.3,-0.24,-2.45,0.0983
0.26,1.04,-0.13,2.82,-0.21,-1.02,-26.37,-14.06,-18.75,1.3,-0.25,-2.44,0.0984
0.26,1.04,-0.13,2.94,-0.54,-1.17,-26.07,-13.18,-18.46,1.3,-0.24,-2.46,0.0985
0.26,1.03,-0.13,2.95,-0.37,-1.14,-26.37,-13.48,-18.46,1.3,-0.24,-2.45,0.0987
0.26,1.04,-0.12,3.23,-1.3,-1.66,-26.37,-13.18,-17.58,1.3,-0.24,-2.45,0.0988
0.25,1.03,-0.13,3.36,-1.75,-2.39,-26.66,-14.65,-18.46,1.3,-0.24,-2.42,0.0989
0.25,1.04,-0.13,3.6,-2.17,-2.49,-25.49,-13.18,-18.16,1.31,-0.23,-2.46,0.0991
0.25,1.04,-0.13,3.85,-3.78,-2.39,-26.07,-14.06,-17.87,1.3,-0.24,-2.42,0.0992
0.24,1.04,-0.13,3.54,-1.95,-1.43,-25.78,-13.48,-19.34,1.31,-0.23,-2.47,0.0993
0.25,1.04,-0.14,2.91,-2.98,-1.55,-26.07,-13.48,-18.75,1.3,-0.23,-2.46,0.0994
0.24,1.04,-0.13,2.51,-1.24,-0.34,-26.37,-13.48,-17.87,1.31,-0.23,-2.45,0.0996
0.24,1.04,-0.13,2.62,0.48,0.76,-26.07,-12.89,-18.46,1.31,-0.23,-2.47,0.0997
0.25,1.04,-0.14,2.42,1.31,0.51,-26.07,-13.48,-18.46,1.31,-0.23,-2.46,0.0998
0.25,1.04,-0.14,2.32,1.63,0.98,-25.49,-13.18,-18.16,1.3,-0.24,-2.46,0.1
0.25,1.03,-0.14,2.19,1.91,1.08,-26.37,-13.77,-18.75,1.3,-0.24,-2.45,0.1001
0.26,1.03,-0.13,2.12,2.04,0.55,-26.07,-14.36,-19.04,1.3,-0.24,-2.43,0.1002
0.26,1.03,-0.13,2.66,1.04,0.32,-25.49,-13.18,-18.46,1.3,-0.24,-2.46,0.1003
0.25,1.04,-0.13,2.62,0.81,-0.33,-26.37,-14.06,-19.04,1.3,-0.24,-2.44,0.1005
0.26,1.03,-0.13,3.17,-0.69,-0.98,-26.07,-12.6,-18.16,1.3,-0.24,-2.47,0.1006
0.25,1.04,-0.13,3.24,-1.21,-1.17,-26.37,-14.06,-18.16,1.3,-0.24,-2.43,0.1007
0.26,1.03,-0.13,3.11,-1.93,-1.64,-26.37,-13.48,-18.75,1.3,-0.24,-2.46,0.1009
0.24,1.04,-0.13,3.31,-0.76,-0.44,-26.07,-13.18,-18.46,1.31,-0.23,-2.47,0.101
0.26,1.04,-0.14,2.94,-1.28,-0.61,-26.07,-13.48,-18.46,1.3,-0.24,-2.45,0.1011
0.25,1.03,-0.13,2.96,-0.47,-0.37,-26.07,-14.06,-19.04,1.3,-0.23,-2.44,0.1013
0.26,1.03,-0.14,2.32,-1.4,-0.66,-25.78,-13.48,-18.75,1.3,-0.24,-2.45,0.1014
0.26,1.04,-0.13,2.51,-0.3,-0.35,-26.07,-13.77,-19.04,1.3,-0.24,-2.45,0.1015
0.26,1.04,-0.12,2.61,-0.25,-0.82,-26.37,-13.77,-18.16,1.3,-0.24,-2.44,0.1016
0.25,1.03,-0.13,2.93,0.41,-0.31,-26.07,-13.48,-18.16,1.3,-0.24,-2.45,0.1018
0.25,1.04,-0.13,2.77,0.93,0.14,-26.37,-14.06,-17.58,1.31,-0.23,-2.42,0.1019
0.26,1.04,-0.13,2.74,0.21,-0.31,-26.07,-13.48,-17.87,1.3,-0.24,-2.44,0.102
0.25,1.03,-0.12,2.83,0.49,-0.36,-25.78,-13.18,-18.16,1.3,-0.24,-2.45,0.1022
0.26,1.04,-0.13,2.97,-1.14,-1.37,-26.07,-13.48,-18.75,1.3,-0.24,-2.45,0.1023
0.26,1.04,-0.13,2.82,-1.79,-1.85,-25.78,-12.6,-18.16,1.3,-0.24,-2.47,0.1024
0.26,1.04,-0.13,3.07,-2.27,-1.67,-26.37,-14.06,-18.46,1.3,-0.24,-2.43,0.1025
0.25,1.04,-0.13,2.85,-2.16,-1.57,-25.2,-14.06,-18.46,1.3,-0.24,-2.43,0.1027
0.25,1.04,-0.13,2.85,-1.5,-1.68,-26.37,-13.48,-18.16,1.3,-0.24,-2.45,0.1028
0.25,1.04,-0.13,2.86,-1.17,-1.42,-26.07,-12.89,-18.46,1.31,-0.23,-2.47,0.1029
0.25,1.04,-0.13,3.07,-0.46,-0.94,-25.78,-12.89,-18.16,1.31,-0.23,-2.47,0.103
0.25,1.04,-0.13,3.12,0.25,-1.02,-25.78,-13.77,-18.75,1.3,-0.23,-2.45,0.1032
0.25,1.04,-0.14,3.12,-0.24,-1.59,-26.07,-13.18,-18.46,1.3,-0.24,-2.46,0.1033
0.25,1.04,-0.13,3.59,-0.79,-1.87,-26.07,-13.77,-19.04,1.3,-0.23,-2.45,0.1034
0.25,1.04,-0.14,3.65,-0.89,-1.85,-26.07,-13.48,-17.87,1.31,-0.23,-2.45,0.1036
0.24,1.04,-0.13,3.62,-0.16,-1.58,-26.07,-12.89,-18.75,1.31,-0.22,-2.48,0.1037
0.25,1.04,-0.15,3.71,1.79,-1.24,-26.07,-13.48,-18.16,1.3,-0.23,-2.45,0.1038
0.23,1.05,-0.15,3.53,7.61,1.78,-26.07,-13.77,-18.16,1.32,-0.21,-2.45,0.1039
0.24,1.03,-0.12,2.94,4.84,0.57,-26.37,-13.77,-18.75,1.31,-0.23,-2.45,0.1041
0.24,1.04,-0.13,3.19,4.04,0.76,-26.66,-13.48,-18.46,1.31,-0.23,-2.46,0.1042
0.23,1.06,-0.15,4.29,6.58,1.95,-26.07,-12.89,-18.46,1.31,-0.22,-2.48,0.1043
0.22,1.06,-0.15,4.21,22.57,9.94,-26.07,-12.89,-18.16,1.33,-0.2,-2.48,0.1044
0.28,1.07,-0.15,3.01,24.63,4.85,-26.66,-13.48,-18.75,1.29,-0.25,-2.46,0.1046
0.24,1.07,-0.12,6.91,25.12,-5.65,-26.37,-13.18,-18.46,1.32,-0.22,-2.47,0.1047
0.21,1.1,-0.15,8.04,31.31,-13.33,-25.78,-12.6,-18.46,1.34,-0.18,-2.5,0.1048
0.21,0.92,0.01,-9.09,57.21,-32.65,-25.78,-12.3,-19.04,1.35,-0.22,-2.49,0.105
0.07,0.76,0.24,-57.97,20.3,-21.48,-25.49,-10.84,-17.87,1.26,-0.09,-2.67,0.1051
0.24,1.25,-0.13,18.59,68.44,31.66,-26.07,-10.84,-17.58,1.35,-0.19,-2.54,0.1052
0.5,1.06,-0.15,5.26,56.81,12.52,-25.78,-11.13,-18.46,1.11,-0.44,-2.46,0.1053
0.08,1.02,-0.13,-23.67,27.34,12.18,-26.07,-10.84,-17.87,1.42,-0.08,-2.61,0.1055
0.21,0.84,0.13,-63.97,7.42,6.87,-26.07,-10.84,-16.7,1.28,-0.25,-2.52,0.1056
0.33,1.0,0.11,17.66,35.57,17.75,-26.07,-10.84,-17.29,1.24,-0.32,-2.5,0.1057
0.39,1.06,0.03,4.91,-41.08,-45.94,-25.78,-10.25,-17.87,1.22,-0.35,-2.51,0.1059
0.0,1.2,0.06,10.68,-33.39,-23.0,-26.37,-9.96,-17.87,1.52,-0.0,-2.66,0.106
-0.04,0.99,0.12,1.69,2.85,-10.54,-25.49,-9.38,-18.16,1.44,0.04,-2.77,0.1061
0.11,1.03,0.0,4.11,15.14,-0.42,-26.07,-9.67,-17.87,1.47,-0.1,-2.61,0.1062
0.08,1.04,0.03,-2.52,-16.72,-2.69,-25.78,-8.5,-18.16,1.49,-0.07,-2.68,0.1064
0.12,1.01,0.08,2.77,11.49,4.87,-25.49,-9.67,-18.16,1.43,-0.12,-2.62,0.1065
0.14,1.01,0.04,3.5,6.94,2.72,-26.37,-9.67,-17.58,1.43,-0.14,-2.59,0.1066
0.11,1.01,0.05,1.79,-0.53,-0.93,-26.95,-9.38,-18.16,1.45,-0.11,-2.63,0.1067
0.12,1.0,0.03,2.54,-0.92,3.24,-26.07,-8.79,-17.58,1.45,-0.12,-2.64,0.1069
0.12,1.0,0.06,5.75,-7.25,1.63,-26.37,-9.08,-18.75,1.44,-0.12,-2.65,0.107
0.12,1.01,0.06,6.42,-6.42,2.51,-26.37,-9.38,-17.58,1.44,-0.12,-2.62,0.1071
0.15,1.0,0.05,4.82,-8.87,0.95,-26.37,-9.38,-17.58,1.41,-0.15,-2.6,0.1072
0.11,1.0,0.07,3.18,-3.0,3.97,-26.66,-9.96,-17.87,1.44,-0.11,-2.61,0.1074
0.15,1.01,0.05,4.52,3.77,5.65,-26.37,-9.67,-17.29,1.41,-0.15,-2.59,0.1075
0.18,1.01,0.06,2.38,-2.38,2.87,-26.95,-9.38,-17.58,1.39,-0.17,-2.6,0.1076
0.18,1.01,0.05,4.2,-5.23,0.31,-26.95,-9.38,-17.29,1.39,-0.18,-2.59,0.1077
0.15,1.01,0.04,2.98,-7.32,0.09,-26.07,-10.55,-16.99,1.41,-0.15,-2.54,0.1079
0.15,1.0,0.05,2.61,-0.69,2.41,-26.66,-10.25,-17.29,1.41,-0.15,-2.56,0.108
0.19,1.01,0.05,2.78,-1.56,1.33,-26.66,-9.38,-16.41,1.38,-0.19,-2.57,0.1081
0.18,1.0,0.05,2.99,-2.35,0.25,-26.95,-9.96,-17.58,1.39,-0.18,-2.57,0.1082
0.17,1.01,0.05,2.98,-2.01,0.63,-26.66,-9.67,-17.58,1.4,-0.17,-2.59,0.1084
0.19,1.01,0.05,2.58,-2.97,0.2,-27.25,-9.96,-17.58,1.38,-0.18,-2.57,0.1085
0.18,1.01,0.05,2.27,-0.96,0.6,-27.25,-9.96,-16.99,1.38,-0.18,-2.57,0.1086
0.19,1.0,0.06,1.93,-2.01,-0.23,-26.37,-10.55,-16.99,1.38,-0.18,-2.54,0.1087
0.18,1.01,0.06,2.4,-0.95,0.01,-27.25,-9.67,-16.99,1.38,-0.18,-2.58,0.1089
0.18,1.01,0.05,2.4,-1.19,-0.24,-27.83,-10.55,-17.29,1.38,-0.18,-2.55,0.109
0.18,1.0,0.06,2.46,-1.17,-0.33,-28.12,-10.25,-16.7,1.39,-0.17,-2.56,0.1091
0.19,1.01,0.06,0.89,-1.43,0.89,-26.37,-9.96,-17.87,1.38,-0.18,-2.58,0.1092
0.19,1.0,0.07,-0.3,0.44,1.76,-26.95,-9.96,-16.7,1.37,-0.18,-2.56,0.1094
0.2,1.0,0.06,-0.78,2.56,2.65,-26.66,-10.55,-16.99,1.37,-0.19,-2.54,0.1095
0.19,1.0,0.06,-0.18,-0.89,-0.54,-26.66,-10.55,-16.41,1.37,-0.19,-2.53,0.1096
0.19,1.0,0.07,0.68,-0.34,1.27,-26.37,-10.25,-16.7,1.37,-0.19,-2.55,0.1097
0.19,0.98,0.13,-4.46,-0.94,3.7,-27.54,-10.55,-17.29,1.34,-0.19,-2.56,0.1099
0.21,0.99,0.1,-3.31,1.73,7.46,-26.66,-9.96,-16.41,1.34,-0.21,-2.55,0.11
0.22,1.0,0.06,-0.6,-0.75,2.66,-26.95,-10.84,-16.7,1.35,-0.21,-2.52,0.1101
0.2,1.0,0.05,0.83,-2.33,1.03,-27.54,-10.55,-16.11,1.37,-0.2,-2.52,0.1102
0.19,1.01,0.03,0.53,1.53,1.69,-26.95,-10.84,-16.11,1.38,-0.19,-2.51,0.1104
0.22,0.99,0.1,0.47,3.42,2.11,-26.95,-10.25,-16.11,1.33,-0.22,-2.54,0.1105
0.22,0.99,0.11,1.96,-1.27,-0.45,-26.95,-10.25,-16.11,1.33,-0.22,-2.54,0.1106
0.22,0.99,0.1,2.44,1.9,1.18,-27.25,-9.96,-15.82,1.34,-0.21,-2.55,0.1107
0.24,0.98,0.13,1.5,2.77,1.11,-27.25,-10.84,-16.7,1.3,-0.24,-2.53,0.1109
0.24,0.99,0.12,1.52,-2.19,-1.95,-26.66,-10.84,-16.41,1.3,-0.24,-2.52,0.111
0.22,0.99,0.12,2.3,0.5,-1.76,-26.66,-10.55,-16.11,1.33,-0.21,-2.53,0.1111
0.21,0.98,0.11,1.95,-1.14,-1.82,-26.95,-10.25,-16.99,1.33,-0.21,-2.56,0.1112
0.22,0.99,0.1,2.26,0.84,-1.21,-27.25,-10.55,-16.41,1.33,-0.22,-2.53,0.1114
0.21,0.99,0.11,1.01,-1.74,-2.02,-26.95,-10.55,-16.7,1.33,-0.21,-2.54,0.1115
0.21,0.98,0.12,0.0,-0.73,-0.31,-26.66,-10.55,-16.41,1.33,-0.21,-2.54,0.1116
0.23,0.99,0.11,0.43,-4.04,-2.37,-26.37,-10.55,-15.23,1.32,-0.23,-2.51,0.1117
0.2,0.99,0.11,0.53,2.27,0.37,-27.25,-10.55,-15.53,1.34,-0.2,-2.52,0.1119
0.2,0.98,0.1,1.01,8.54,2.44,-27.83,-11.13,-16.7,1.34,-0.2,-2.52,0.112
0.19,0.98,0.14,2.0,9.71,3.47,-26.95,-11.13,-16.11,1.33,-0.19,-2.52,0.1121
0.23,0.96,0.16,3.19,8.63,2.72,-27.25,-10.84,-16.7,1.29,-0.23,-2.54,0.1122
0.24,0.98,0.13,1.83,-0.18,-2.34,-26.95,-10.55,-16.11,1.29,-0.24,-2.53,0.1124
0.23,0.98,0.13,3.08,-3.83,-4.23,-26.66,-10.84,-16.7,1.31,-0.23,-2.53,0.1125
0.19,0.99,0.11,2.5,-2.71,-3.01,-26.95,-10.25,-16.41,1.35,-0.19,-2.55,0.1126
0.23,0.97,0.13,2.32,-5.84,-5.25,-27.25,-10.55,-16.11,1.31,-0.23,-2.53,0.1127
0.21,0.99,0.14,3.46,-4.15,-5.13,-26.95,-10.84,-16.41,1.33,-0.2,-2.53,0.1129
0.18,0.99,0.11,4.55,-2.46,-3.79,-27.54,-9.96,-16.7,1.37,-0.17,-2.58,0.113
0.19,0.98,0.11,3.29,-2.71,-2.67,-27.54,-10.55,-16.11,1.35,-0.19,-2.54,0.1131
0.18,0.99,0.13,4.29,3.62,1.46,-26.66,-10.25,-16.41,1.35,-0.18,-2.56,0.1133
0.2,0.99,0.11,3.37,5.79,2.82,-27.25,-9.96,-15.82,1.35,-0.19,-2.55,0.1134
0.19,1.0,0.1,1.86,2.48,1.11,-26.66,-10.25,-16.7,1.36,-0.18,-2.55,0.1135
0.21,0.99,0.12,1.2,0.92,1.14,-27.25,-10.55,-16.41,1.33,-0.21,-2.54,0.1136
0.2,0.98,0.14,1.74,7.06,3.13,-27.25,-10.25,-16.99,1.33,-0.2,-2.57,0.1137
0.2,0.99,0.13,1.69,1.35,1.12,-26.66,-10.25,-16.7,1.33,-0.2,-2.56,0.1139
0.19,0.99,0.12,2.24,7.09,3.01,-26.66,-11.13,-15.53,1.34,-0.19,-2.5,0.114
0.22,0.98,0.13,2.92,1.22,-0.11,-26.66,-10.55,-16.7,1.32,-0.22,-2.54,0.1141
0.2,0.98,0.14,2.38,-1.56,-0.63,-26.66,-10.84,-16.7,1.32,-0.2,-2.54,0.1142
0.22,0.97,0.14,2.59,-0.72,-0.46,-26.95,-10.55,-16.7,1.31,-0.22,-2.55,0.1144
0.21,0.99,0.14,2.33,-0.26,-0.93,-26.95,-10.55,-16.7,1.32,-0.21,-2.55,0.1145
0.21,0.97,0.14,2.37,-0.04,-0.53,-26.66,-10.55,-16.7,1.32,-0.21,-2.55,0.1146
0.21,0.98,0.13,2.46,-2.4,-1.46,-27.54,-10.25,-16.7,1.33,-0.2,-2.56,0.1147
0.2,0.98,0.13,2.81,-1.59,-0.52,-27.25,-10.55,-16.99,1.34,-0.2,-2.55,0.1149
0.2,0.98,0.13,2.56,-0.88,-0.42,-25.78,-10.55,-15.82,1.33,-0.2,-2.53,0.115
0.21,0.98,0.13,2.43,-1.04,-0.5,-26.66,-10.84,-17.29,1.32,-0.21,-2.54,0.1151
0.21,0.98,0.13,2.76,-1.17,-0.18,-26.95,-10.55,-16.7,1.33,-0.21,-2.55,0.1153
0.21,0.98,0.13,2.88,-1.77,-0.4,-26.95,-10.55,-16.99,1.32,-0.21,-2.55,0.1154
0.21,0.98,0.14,2.87,-1.08,-0.14,-27.25,-10.55,-16.99,1.32,-0.21,-2.55,0.1155
0.21,0.98,0.13,2.79,-1.62,-0.8,-26.37,-11.72,-16.11,1.32,-0.21,-2.49,0.1156
0.21,0.98,0.13,2.93,-2.85,-0.38,-27.25,-10.55,-15.82,1.32,-0.21,-2.53,0.1158
0.21,0.98,0.13,2.82,-2.05,-0.66,-27.54,-10.55,-16.7,1.32,-0.21,-2.55,0.1159
0.21,0.98,0.13,2.82,-1.76,-0.29,-27.25,-10.84,-16.41,1.33,-0.21,-2.53,0.116
0.22,0.98,0.14,2.6,-2.44,-0.56,-26.95,-10.84,-16.41,1.31,-0.21,-2.53,0.1162
0.21,0.98,0.13,2.79,-2.7,-0.77,-26.66,-10.25,-16.11,1.32,-0.21,-2.55,0.1163
0.22,0.98,0.14,2.77,-2.32,-0.24,-27.54,-10.84,-16.7,1.31,-0.21,-2.54,0.1164
0.21,0.98,0.13,2.63,-0.95,0.26,-27.25,-11.13,-16.7,1.32,-0.21,-2.52,0.1165
0.22,0.98,0.13,2.85,-1.58,-0.11,-26.37,-11.13,-15.53,1.32,-0.22,-2.5,0.1167
0.22,0.98,0.13,2.74,-2.09,0.02,-26.37,-11.13,-16.11,1.32,-0.22,-2.51,0.1168
0.22,0.98,0.13,2.56,-1.72,0.2,-26.37,-10.84,-15.82,1.32,-0.22,-2.51,0.1169
0.22,0.99,0.12,2.86,-0.6,0.04,-26.66,-10.84,-16.11,1.32,-0.22,-2.52,0.117
0.22,0.98,0.15,2.86,-0.47,0.46,-26.95,-11.13,-16.11,1.3,-0.22,-2.52,0.1172
0.23,0.97,0.15,2.66,-1.0,0.47,-27.25,-10.84,-15.82,1.3,-0.23,-2.52,0.1173
0.23,0.98,0.13,2.93,-2.46,-0.66,-26.95,-10.55,-16.41,1.31,-0.23,-2.53,0.1174
0.22,0.98,0.12,3.01,-1.77,-0.21,-27.54,-11.43,-16.41,1.32,-0.22,-2.51,0.1175
0.23,0.98,0.14,3.21,-1.47,-0.05,-27.25,-10.55,-16.41,1.3,-0.23,-2.54,0.1177
0.23,0.97,0.15,3.08,-2.93,-0.63,-26.66,-10.84,-16.41,1.3,-0.23,-2.52,0.1178
0.24,0.98,0.13,2.59,-3.19,-1.0,-27.25,-10.55,-15.82,1.3,-0.23,-2.53,0.1179
0.23,0.98,0.13,2.85,-2.47,-0.62,-27.83,-10.84,-16.11,1.3,-0.23,-2.52,0.118
0.23,0.98,0.12,2.78,-1.63,-0.38,-26.37,-10.55,-15.82,1.31,-0.23,-2.52,0.1182
0.23,0.98,0.13,2.74,-0.84,-0.43,-27.54,-10.84,-16.11,1.31,-0.23,-2.52,0.1183
0.23,0.98,0.13,3.11,-0.89,-0.31,-27.25,-11.43,-15.82,1.31,-0.23,-2.49,0.1184
0.24,0.98,0.13,2.82,-0.44,-0.28,-27.54,-11.13,-16.7,1.3,-0.24,-2.52,0.1186
0.23,0.98,0.13,2.8,-0.33,-0.23,-27.25,-12.01,-15.82,1.31,-0.23,-2.47,0.1187
0.23,0.98,0.13,3.27,0.1,-0.35,-27.25,-11.13,-16.11,1.3,-0.23,-2.51,0.1188
0.23,0.98,0.13,3.03,-0.37,-0.26,-26.95,-11.13,-15.82,1.31,-0.23,-2.5,0.1189
0.23,0.98,0.13,2.88,-0.92,-0.4,-27.54,-11.13,-15.53,1.3,-0.23,-2.5,0.119
0.24,0.98,0.13,3.32,-1.69,-0.92,-27.54,-11.13,-15.82,1.29,-0.24,-2.5,0.1192
0.24,0.98,0.12,3.11,-0.6,-0.52,-27.25,-10.84,-15.82,1.3,-0.24,-2.51,0.1193
0.24,0.98,0.13,3.3,-1.34,-0.46,-26.66,-10.84,-15.53,1.3,-0.24,-2.51,0.1194
0.23,0.97,0.13,2.88,-1.52,-0.43,-27.54,-11.43,-15.82,1.3,-0.23,-2.49,0.1195
0.23,0.98,0.13,3.07,-1.36,-0.82,-28.12,-11.43,-16.41,1.3,-0.23,-2.51,0.1197
0.23,0.97,0.13,2.59,-0.72,-0.31,-27.54,-11.13,-16.11,1.31,-0.23,-2.51,0.1198
0.24,0.98,0.13,3.03,-0.53,-0.66,-27.25,-10.84,-15.82,1.3,-0.24,-2.51,0.1199
0.24,0.97,0.13,3.0,-0.86,-0.72,-27.25,-10.84,-16.41,1.3,-0.24,-2.52,0.12
0.24,0.98,0.13,2.78,-1.55,-0.72,-26.95,-12.3,-16.7,1.3,-0.24,-2.47,0.1202
0.24,0.98,0.13,2.98,-1.09,-0.81,-27.54,-11.13,-16.11,1.3,-0.23,-2.51,0.1203
0.23,0.98,0.12,2.92,-0.86,-0.21,-26.66,-12.01,-16.7,1.31,-0.23,-2.48,0.1204
0.24,0.98,0.12,2.53,-1.47,-0.33,-27.54,-11.43,-16.11,1.3,-0.24,-2.5,0.1205
0.24,0.97,0.13,2.95,0.31,-0.18,-26.66,-11.72,-15.53,1.3,-0.24,-2.47,0.1207
0.24,0.97,0.13,3.17,-0.73,-0.61,-26.95,-11.43,-16.7,1.3,-0.24,-2.5,0.1208
0.24,0.97,0.13,3.0,-1.48,-0.77,-26.37,-11.13,-15.82,1.29,-0.24,-2.5,0.1209
0.24,0.98,0.13,3.07,-2.0,-1.0,-27.25,-10.55,-16.41,1.3,-0.24,-2.53,0.1211
0.23,0.98,0.12,3.09,-0.85,-0.11,-27.25,-11.72,-15.82,1.31,-0.23,-2.48,0.1212
0.24,0.98,0.13,3.1,-0.7,-0.65,-26.66,-10.84,-16.11,1.3,-0.24,-2.51,0.1213
0.24,0.99,0.12,2.58,-1.69,-0.31,-27.25,-11.72,-16.11,1.3,-0.24,-2.48,0.1214
0.23,0.98,0.13,2.24,-2.32,0.83,-27.25,-11.43,-15.53,1.3,-0.23,-2.49,0.1216
0.24,0.98,0.12,3.18,-0.76,-0.19,-27.54,-11.13,-15.82,1.3,-0.24,-2.5,0.1217
0.24,0.98,0.14,2.39,-1.14,0.03,-27.54,-11.72,-16.11,1.3,-0.24,-2.49,0.1218
0.23,0.98,0.12,2.53,-0.46,0.06,-27.54,-11.43,-15.82,1.31,-0.23,-2.49,0.1219
0.24,0.98,0.12,2.67,-1.29,-0.02,-26.66,-11.43,-15.53,1.3,-0.24,-2.48,0.1221
0.26,0.98,0.14,2.9,-3.01,-0.64,-27.54,-11.43,-15.53,1.28,-0.25,-2.49,0.1222
0.25,0.98,0.13,3.36,-2.75,-1.01,-27.83,-11.13,-15.53,1.29,-0.25,-2.5,0.1223
0.24,0.98,0.12,3.38,-1.41,-0.44,-27.25,-11.72,-15.23,1.3,-0.24,-2.47,0.1225
0.25,0.98,0.12,3.29,-2.19,-0.85,-27.25,-11.72,-15.23,1.29,-0.25,-2.47,0.1226
0.25,0.98,0.12,2.93,-1.79,-0.68,-27.54,-11.43,-15.23,1.29,-0.25,-2.48,0.1227
0.25,0.98,0.12,3.04,0.05,0.24,-27.83,-11.43,-15.82,1.3,-0.25,-2.49,0.1228
0.26,0.98,0.12,2.96,-0.18,0.03,-27.83,-11.43,-15.53,1.29,-0.25,-2.48,0.123
0.25,0.98,0.13,2.98,-0.33,-0.09,-27.54,-12.01,-16.11,1.29,-0.25,-2.47,0.1231
0.26,0.98,0.11,3.1,-0.75,-0.59,-27.54,-11.43,-15.82,1.29,-0.26,-2.49,0.1232
0.25,0.98,0.13,2.97,-0.06,-0.05,-27.25,-11.43,-15.23,1.29,-0.25,-2.48,0.1233
0.24,0.99,0.11,3.68,1.98,0.93,-27.54,-11.43,-15.53,1.31,-0.23,-2.48,0.1235
0.26,0.98,0.12,4.71,2.14,-0.58,-28.42,-11.43,-16.41,1.28,-0.26,-2.5,0.1236
0.26,0.98,0.14,4.81,1.63,0.0,-27.25,-12.01,-15.23,1.28,-0.26,-2.46,0.1237
0.27,0.97,0.13,3.12,-3.17,-1.82,-26.95,-11.13,-15.23,1.28,-0.26,-2.49,0.1238
0.25,0.98,0.11,3.65,-1.75,-1.62,-26.95,-12.01,-16.11,1.3,-0.25,-2.47,0.124
0.25,0.99,0.09,6.13,-0.38,-1.23,-26.66,-11.13,-15.53,1.31,-0.24,-2.48,0.1241
0.24,0.98,0.09,4.66,-1.35,-0.69,-27.25,-11.43,-15.82,1.32,-0.24,-2.48,0.1242
0.25,0.99,0.11,5.42,1.17,0.4,-27.25,-11.13,-15.53,1.3,-0.25,-2.49,0.1243
0.26,0.98,0.12,3.77,0.54,-0.49,-26.66,-11.43,-15.82,1.29,-0.26,-2.48,0.1245
0.25,0.98,0.11,3.2,0.18,-0.2,-27.25,-11.13,-16.11,1.3,-0.25,-2.5,0.1246
0.25,0.99,0.11,3.19,-0.73,-0.49,-27.25,-11.43,-16.41,1.3,-0.25,-2.49,0.1247
0.25,0.98,0.11,3.23,-0.65,-0.27,-26.66,-11.13,-15.53,1.3,-0.25,-2.49,0.1248
0.25,0.99,0.1,3.18,-2.17,-0.71,-27.54,-11.43,-15.53,1.3,-0.25,-2.48,0.125
0.26,0.98,0.1,3.12,-2.61,-0.83,-27.83,-11.43,-16.11,1.3,-0.25,-2.49,0.1251
0.25,0.99,0.09,3.33,-2.14,-0.55,-27.25,-11.72,-15.82,1.31,-0.24,-2.47,0.1252
0.25,0.99,0.1,3.78,-0.58,0.36,-27.83,-11.72,-15.82,1.31,-0.24,-2.48,0.1254
0.25,0.98,0.1,3.18,-0.15,0.68,-28.42,-12.3,-16.41,1.3,-0.25,-2.47,0.1255
0.26,0.99,0.11,2.81,-1.15,0.28,-28.12,-11.43,-16.41,1.29,-0.26,-2.5,0.1256
0.26,0.98,0.11,2.04,-2.51,-0.4,-26.66,-11.43,-15.82,1.29,-0.26,-2.48,0.1258
0.26,0.98,0.09,2.1,-1.25,-0.21,-27.25,-11.43,-15.23,1.3,-0.26,-2.47,0.1259
0.26,0.99,0.09,2.32,-2.11,-0.64,-27.83,-11.43,-16.41,1.3,-0.25,-2.49,0.126
0.26,0.99,0.1,2.75,-0.93,-0.09,-27.25,-12.01,-15.82,1.3,-0.26,-2.46,0.1261
0.26,0.98,0.09,2.54,-1.05,-0.4,-27.83,-12.01,-15.82,1.29,-0.26,-2.46,0.1263
0.26,0.98,0.1,2.78,-0.41,-0.61,-27.83,-11.72,-16.11,1.3,-0.26,-2.48,0.1264
0.26,0.98,0.1,2.87,0.35,-0.18,-27.54,-11.72,-16.11,1.3,-0.25,-2.48,0.1265
0.26,0.99,0.1,2.61,0.31,-0.29,-27.25,-11.43,-15.23,1.29,-0.26,-2.47,0.1266
0.26,0.99,0.1,2.83,-0.87,-0.94,-27.83,-12.01,-16.41,1.29,-0.26,-2.47,0.1268
0.26,0.98,0.1,2.57,-0.94,-1.01,-27.54,-12.01,-15.82,1.29,-0.26,-2.46,0.1269
0.26,0.99,0.1,2.61,-0.42,-0.65,-27.54,-11.72,-15.82,1.29,-0.26,-2.47,0.127
0.26,0.99,0.1,2.9,-0.67,-0.81,-27.25,-11.72,-16.11,1.29,-0.26,-2.47,0.1272
0.26,0.98,0.09,2.64,-0.4,-0.53,-28.12,-11.43,-16.11,1.3,-0.26,-2.49,0.1273
0.27,0.99,0.1,3.2,0.02,-0.72,-27.25,-11.43,-15.82,1.29,-0.26,-2.48,0.1274
0.27,0.99,0.1,2.94,-0.76,-0.9,-27.54,-11.43,-15.53,1.29,-0.26,-2.48,0.1275
0.26,0.99,0.1,3.27,0.42,-0.56,-27.54,-11.72,-15.53,1.29,-0.26,-2.47,0.1277
0.26,0.99,0.09,3.01,1.47,-0.33,-28.12,-11.43,-16.41,1.3,-0.25,-2.49,0.1278
0.26,0.98,0.1,2.46,1.61,-0.14,-28.12,-11.43,-15.53,1.29,-0.26,-2.48,0.1279
0.27,0.98,0.1,2.94,0.4,-0.78,-27.25,-11.43,-16.11,1.28,-0.27,-2.48,0.128
0.26,0.98,0.1,2.66,-0.29,-0.95,-26.95,-11.43,-15.53,1.29,-0.26,-2.47,0.1282
0.26,0.99,0.1,2.69,0.16,-0.8,-27.54,-12.3,-15.82,1.3,-0.25,-2.45,0.1283
0.26,0.99,0.11,2.3,-0.4,-0.79,-27.83,-11.13,-15.82,1.29,-0.26,-2.5,0.1284
0.27,0.98,0.1,2.25,-1.69,-1.44,-27.25,-10.84,-15.53,1.29,-0.26,-2.5,0.1285
0.26,0.99,0.09,2.76,-1.37,-1.45,-27.54,-12.01,-15.82,1.3,-0.25,-2.46,0.1287
0.26,0.98,0.11,2.85,-0.59,-0.72,-27.54,-11.43,-16.41,1.3,-0.25,-2.49,0.1288
0.26,0.99,0.1,2.61,-2.08,-0.98,-26.95,-11.72,-15.53,1.3,-0.26,-2.46,0.1289
0.25,0.99,0.1,2.83,-1.83,-1.21,-26.66,-11.43,-16.11,1.3,-0.25,-2.48,0.129
0.25,0.99,0.11,2.62,-0.2,-0.5,-27.54,-11.72,-15.82,1.3,-0.25,-2.47,0.1292
0.26,0.98,0.1,2.67,-0.89,-0.69,-26.66,-11.43,-15.82,1.29,-0.26,-2.48,0.1293
0.27,0.98,0.11,2.62,-0.9,-0.69,-28.12,-11.72,-16.11,1.29,-0.26,-2.48,0.1294
0.25,0.99,0.11,3.01,0.05,-0.08,-27.25,-10.84,-16.11,1.3,-0.25,-2.51,0.1296
0.27,0.99,0.1,2.98,-0.63,-0.5,-27.54,-11.13,-15.53,1.29,-0.26,-2.49,0.1297
0.26,0.99,0.11,3.12,-1.32,-0.34,-27.54,-12.3,-15.53,1.3,-0.25,-2.45,0.1298
0.26,0.98,0.1,3.23,-1.24,-0.73,-27.25,-11.43,-16.41,1.29,-0.26,-2.49,0.1299
0.26,0.99,0.1,3.4,-0.86,-0.26,-27.25,-11.43,-15.82,1.3,-0.25,-2.48,0.1301
0.26,0.99,0.11,3.36,-1.42,-0.78,-27.54,-11.43,-16.11,1.29,-0.26,-2.49,0.1302
0.26,0.98,0.1,3.4,-0.53,-0.48,-27.83,-11.43,-16.41,1.3,-0.26,-2.49,0.1303
0.26,0.98,0.1,2.74,-0.68,-0.29,-27.54,-11.43,-16.11,1.3,-0.26,-2.49,0.1304
0.26,0.99,0.09,3.13,-0.65,-0.51,-27.25,-11.72,-15.53,1.3,-0.26,-2.46,0.1306
0.27,0.99,0.1,3.17,-0.83,-0.27,-27.54,-12.3,-16.11,1.29,-0.27,-2.45,0.1307
0.26,0.99,0.1,2.72,-0.28,-0.2,-27.54,-12.01,-15.53,1.29,-0.26,-2.45,0.1308
0.27,0.98,0.1,2.58,0.71,0.05,-27.54,-12.01,-15.82,1.29,-0.26,-2.46,0.1309
0.28,0.99,0.11,2.65,0.18,-0.71,-27.83,-12.3,-15.23,1.28,-0.27,-2.44,0.1311
0.26,0.98,0.11,2.07,-0.39,-1.64,-27.25,-11.13,-15.53,1.29,-0.26,-2.49,0.1312
0.27,0.99,0.09,1.15,4.84,-0.18,-27.25,-11.72,-15.82,1.29,-0.26,-2.46,0.1313
0.28,0.99,0.07,1.18,1.55,-2.52,-27.25,-11.72,-15.23,1.29,-0.28,-2.45,0.1314
0.24,0.99,0.06,3.3,10.91,-0.44,-28.12,-11.13,-16.7,1.33,-0.23,-2.51,0.1316
0.27,1.0,0.09,2.88,11.39,-2.25,-27.25,-12.01,-15.82,1.29,-0.26,-2.45,0.1317
0.29,0.99,0.08,1.94,6.29,-10.09,-27.54,-11.13,-15.53,1.28,-0.28,-2.48,0.1318
0.22,0.98,0.12,-4.57,3.59,-10.8,-26.95,-10.84,-15.82,1.32,-0.22,-2.52,0.132
0.24,0.95,0.22,-3.17,-2.69,-8.35,-26.66,-11.13,-15.53,1.24,-0.24,-2.52,0.1321
0.21,0.99,0.11,1.24,-0.69,-10.31,-26.66,-11.13,-16.41,1.34,-0.2,-2.51,0.1322
0.35,1.15,-0.22,11.06,-6.19,-23.08,-26.66,-10.84,-16.41,1.23,-0.29,-2.52,0.1324
0.1,1.16,-0.05,5.78,6.2,5.26,-26.37,-11.13,-16.7,1.47,-0.09,-2.54,0.1325
0.05,0.88,0.32,28.63,78.69,44.76,-26.37,-11.13,-17.87,1.22,-0.06,-2.69,0.1326
0.43,0.8,0.24,12.81,47.94,39.94,-26.37,-12.01,-18.75,1.02,-0.47,-2.45,0.1327
0.42,0.7,0.26,-13.34,-22.1,-1.1,-25.78,-12.01,-18.75,0.96,-0.52,-2.44,0.1329
0.01,1.19,-0.02,1.47,-12.45,-72.65,-25.78,-11.72,-18.75,1.56,-0.01,-2.59,0.133
0.22,0.7,0.2,2.4,29.59,-24.59,-25.78,-11.13,-19.92,1.17,-0.3,-2.55,0.1331
-0.07,0.97,0.27,-5.55,20.38,-20.07,-24.9,-10.84,-19.34,1.29,0.07,-2.8,0.1333
0.1,0.98,0.15,-6.52,-6.23,-8.13,-24.9,-9.67,-19.92,1.39,-0.1,-2.67,0.1334
-0.02,0.99,0.06,-0.48,9.74,-3.56,-24.32,-9.67,-19.63,1.51,0.02,-2.73,0.1335
0.12,0.96,0.11,-0.79,3.76,-4.41,-24.9,-10.25,-19.63,1.4,-0.12,-2.63,0.1336
0.11,0.98,0.2,-8.73,-18.9,-15.56,-24.32,-9.67,-19.63,1.34,-0.11,-2.68,0.1338
0.05,0.98,0.11,-10.22,-1.19,-0.46,-24.32,-10.25,-19.34,1.44,-0.05,-2.66,0.1339
-0.01,1.01,0.07,-6.69,0.52,3.68,-24.9,-9.96,-19.34,1.5,0.01,-2.71,0.134
0.07,0.95,0.19,-8.42,19.48,10.22,-24.61,-10.25,-19.04,1.36,-0.07,-2.68,0.1342
0.1,0.96,0.2,-5.62,10.69,6.12,-24.61,-9.96,-19.34,1.35,-0.1,-2.67,0.1343
0.11,0.97,0.21,-4.49,6.95,2.22,-24.9,-10.55,-19.04,1.34,-0.11,-2.64,0.1344
0.09,0.94,0.22,-5.48,7.79,1.5,-24.32,-10.55,-19.04,1.32,-0.09,-2.66,0.1345
0.08,0.95,0.23,-6.61,17.68,4.8,-24.9,-9.96,-19.92,1.32,-0.08,-2.7,0.1347
0.02,0.98,0.23,-4.84,16.59,5.55,-25.2,-10.25,-19.34,1.34,-0.02,-2.73,0.1348
0.14,0.95,0.22,-7.21,12.26,6.43,-24.9,-9.67,-19.63,1.3,-0.14,-2.67,0.1349
0.12,0.92,0.27,-4.92,37.22,11.6,-25.2,-11.43,-18.75,1.26,-0.12,-2.63,0.135
0.12,0.95,0.23,-2.81,12.02,-0.92,-24.9,-9.96,-19.92,1.31,-0.13,-2.67,0.1352
0.06,0.93,0.24,-0.38,10.21,-1.56,-24.32,-10.25,-19.92,1.31,-0.07,-2.71,0.1353
0.12,0.89,0.32,3.06,2.61,-6.96,-24.9,-9.96,-19.34,1.21,-0.12,-2.7,0.1354
-0.01,0.92,0.27,3.07,-3.07,-4.03,-24.61,-10.25,-19.04,1.29,0.01,-2.76,0.1356
0.05,0.93,0.23,3.56,6.16,0.6,-24.9,-9.67,-20.21,1.32,-0.05,-2.74,0.1357
0.08,0.91,0.31,3.65,-8.22,-5.8,-24.61,-9.96,-20.21,1.24,-0.08,-2.73,0.1358
0.02,0.9,0.27,5.56,0.76,-2.66,-25.2,-9.96,-20.21,1.28,-0.03,-2.76,0.1359
0.04,0.94,0.22,3.77,-6.07,-4.56,-24.61,-9.38,-19.63,1.34,-0.04,-2.75,0.1361
0.02,0.92,0.25,3.01,5.07,0.53,-24.9,-9.96,-19.92,1.3,-0.02,-2.76,0.1362
0.03,0.93,0.23,2.52,1.39,-0.21,-25.2,-9.67,-20.21,1.33,-0.03,-2.76,0.1363
0.03,0.93,0.23,2.02,0.05,-1.14,-24.61,-9.96,-19.34,1.33,-0.03,-2.74,0.1364
0.02,0.93,0.24,1.53,5.05,1.6,-25.2,-9.38,-19.92,1.32,-0.02,-2.78,0.1365
0.04,0.93,0.25,2.03,2.37,-0.01,-25.2,-9.96,-20.51,1.3,-0.04,-2.75,0.1367
0.03,0.92,0.27,2.08,1.14,0.13,-24.61,-9.38,-19.92,1.28,-0.03,-2.77,0.1368
0.05,0.93,0.24,3.17,-2.14,-2.0,-25.2,-9.08,-19.92,1.32,-0.05,-2.76,0.1369
0.02,0.92,0.25,3.75,-4.41,-2.37,-24.32,-9.38,-20.51,1.31,-0.02,-2.78,0.137
0.03,0.93,0.25,3.66,0.02,-0.75,-24.61,-9.67,-19.92,1.3,-0.03,-2.76,0.1372
0.03,0.93,0.25,3.07,-3.32,-2.24,-24.9,-10.55,-19.92,1.3,-0.03,-2.73,0.1373
0.02,0.92,0.25,3.14,0.97,-0.59,-24.61,-9.96,-20.51,1.3,-0.02,-2.76,0.1374
0.03,0.92,0.26,3.52,-1.19,-1.13,-24.02,-8.79,-19.92,1.29,-0.03,-2.79,0.1375
0.05,0.93,0.25,3.27,-3.88,-2.91,-24.61,-10.25,-20.51,1.31,-0.05,-2.73,0.1377
0.01,0.92,0.26,3.02,2.69,0.93,-24.32,-9.67,-19.63,1.29,-0.01,-2.77,0.1378
0.05,0.93,0.25,3.62,-0.31,-0.5,-25.2,-9.67,-20.51,1.3,-0.05,-2.75,0.1379
0.03,0.93,0.26,3.62,-2.31,-1.69,-24.61,-10.55,-19.34,1.3,-0.04,-2.72,0.138
0.03,0.92,0.25,3.63,-2.11,-1.23,-24.32,-8.79,-19.63,1.3,-0.03,-2.79,0.1382
0.02,0.93,0.24,3.85,-1.04,-0.39,-24.61,-9.67,-19.92,1.32,-0.02,-2.76,0.1383
0.01,0.93,0.25,3.11,0.7,0.11,-24.61,-9.67,-19.63,1.31,-0.01,-2.77,0.1384
0.03,0.93,0.24,2.88,-0.55,-0.53,-24.61,-9.96,-20.51,1.32,-0.03,-2.75,0.1385
0.02,0.92,0.25,2.9,-0.26,0.13,-24.02,-9.67,-20.51,1.31,-0.02,-2.77,0.1387
0.03,0.93,0.23,2.66,-0.43,-0.26,-24.32,-9.67,-20.21,1.32,-0.03,-2.76,0.1388
0.03,0.93,0.25,2.98,-1.78,-0.68,-24.02,-9.67,-19.63,1.31,-0.03,-2.75,0.1389
0.03,0.93,0.24,2.91,-2.01,-0.44,-24.61,-9.08,-20.51,1.31,-0.03,-2.78,0.139
0.02,0.92,0.25,2.47,-0.36,1.08,-25.2,-9.38,-19.92,1.3,-0.02,-2.78,0.1392
0.03,0.93,0.24,2.85,1.36,2.17,-24.9,-9.67,-20.21,1.31,-0.03,-2.76,0.1393
0.05,0.94,0.25,3.34,-4.14,-0.76,-25.2,-9.96,-19.92,1.3,-0.05,-2.73,0.1394
0.04,0.92,0.26,3.85,-3.87,-0.76,-24.32,-9.96,-20.21,1.29,-0.04,-2.74,0.1395
0.05,0.93,0.24,3.63,-6.0,-1.73,-24.32,-9.38,-20.21,1.32,-0.05,-2.75,0.1396
0.04,0.93,0.24,3.57,-4.16,-1.4,-24.32,-9.67,-19.04,1.32,-0.04,-2.73,0.1398
0.04,0.93,0.24,3.12,-3.06,-0.91,-25.2,-10.25,-19.63,1.31,-0.04,-2.73,0.1399
0.04,0.92,0.25,3.3,-3.11,-0.92,-24.61,-9.96,-19.92,1.3,-0.04,-2.74,0.14
0.04,0.93,0.25,3.2,-2.35,-0.6,-24.61,-9.67,-19.34,1.31,-0.04,-2.74,0.1402
0.05,0.93,0.24,2.98,-2.88,-1.05,-24.9,-9.96,-19.04,1.31,-0.05,-2.72,0.1403
0.04,0.93,0.25,3.03,-2.59,-1.02,-25.49,-10.25,-19.34,1.31,-0.04,-2.72,0.1404
0.06,0.93,0.24,2.71,-3.53,-1.66,-24.32,-9.96,-19.34,1.31,-0.06,-2.71,0.1405
0.04,0.93,0.25,2.79,-1.43,-1.17,-24.32,-9.96,-19.63,1.31,-0.04,-2.73,0.1407
0.04,0.93,0.24,2.51,-0.26,-0.78,-24.61,-10.25,-19.63,1.31,-0.05,-2.72,0.1408
0.04,0.93,0.24,2.69,0.63,-0.61,-24.02,-9.67,-19.34,1.31,-0.05,-2.73,0.1409
0.05,0.93,0.24,2.75,-1.56,-1.07,-25.2,-10.25,-19.34,1.32,-0.05,-2.71,0.141
0.04,0.93,0.25,2.83,0.07,-0.9,-24.02,-9.67,-19.92,1.31,-0.05,-2.74,0.1412
0.05,0.93,0.25,2.63,-0.53,-1.27,-25.2,-9.38,-19.63,1.3,-0.05,-2.75,0.1413
0.04,0.93,0.25,3.2,-1.11,-1.5,-24.61,-9.38,-20.51,1.31,-0.04,-2.76,0.1414
0.04,0.93,0.24,2.72,0.22,-0.63,-24.9,-9.67,-19.34,1.31,-0.04,-2.74,0.1415
0.04,0.93,0.25,2.77,0.53,-0.6,-24.61,-10.25,-19.92,1.3,-0.04,-2.73,0.1417
0.04,0.93,0.27,3.11,-2.59,-2.13,-24.61,-10.55,-19.04,1.29,-0.05,-2.71,0.1418
0.03,0.92,0.23,2.59,-1.43,-0.69,-24.61,-10.25,-19.63,1.32,-0.03,-2.73,0.1419
0.04,0.92,0.25,2.38,0.66,-0.11,-24.9,-9.67,-19.63,1.31,-0.05,-2.74,0.142
0.04,0.93,0.24,2.32,0.0,0.18,-24.32,-8.79,-19.63,1.32,-0.04,-2.77,0.1422
0.05,0.93,0.24,2.24,-0.54,-0.55,-24.9,-9.08,-19.34,1.31,-0.05,-2.75,0.1423
0.05,0.93,0.26,2.71,-1.53,-0.56,-25.2,-9.67,-19.04,1.3,-0.05,-2.74,0.1424
0.06,0.92,0.26,2.56,-2.11,-0.82,-24.02,-9.67,-20.21,1.29,-0.06,-2.74,0.1425
0.04,0.93,0.24,3.18,-1.37,-0.94,-24.32,-9.67,-19.04,1.31,-0.04,-2.73,0.1427
0.04,0.92,0.26,2.94,-1.05,-0.37,-24.61,-9.96,-19.92,1.3,-0.05,-2.74,0.1428
0.05,0.93,0.24,3.07,-1.7,-0.99,-24.9,-9.38,-19.92,1.31,-0.05,-2.75,0.1429
0.05,0.93,0.24,2.9,-0.61,-0.82,-23.73,-10.55,-19.63,1.31,-0.05,-2.7,0.143
0.05,0.92,0.25,2.81,-1.72,-0.67,-25.2,-10.25,-19.92,1.3,-0.05,-2.72,0.1432
0.05,0.92,0.25,2.67,-1.01,-0.97,-24.32,-9.67,-19.92,1.3,-0.05,-2.74,0.1433
0.04,0.92,0.25,2.85,-0.32,-0.41,-24.61,-9.67,-19.63,1.3,-0.05,-2.74,0.1434
0.05,0.93,0.24,2.51,-1.17,-0.6,-24.61,-10.25,-19.04,1.31,-0.05,-2.71,0.1435
0.05,0.92,0.24,2.9,-0.22,-0.65,-24.9,-10.25,-19.92,1.31,-0.05,-2.72,0.1437
0.05,0.93,0.24,2.53,0.02,-0.53,-24.61,-9.67,-19.92,1.31,-0.05,-2.74,0.1438
0.05,0.93,0.25,2.56,-0.6,-0.98,-24.32,-9.08,-19.04,1.3,-0.05,-2.75,0.1439
0.04,0.93,0.25,2.69,-0.5,-0.92,-24.9,-9.08,-19.34,1.31,-0.04,-2.76,0.144
0.05,0.93,0.24,2.61,-0.96,-0.98,-24.32,-9.38,-20.21,1.31,-0.05,-2.75,0.1442
0.05,0.93,0.25,2.63,-1.14,-1.12,-24.02,-9.38,-19.63,1.3,-0.05,-2.75,0.1443
0.05,0.93,0.26,2.75,-1.57,-1.27,-24.32,-9.38,-19.92,1.3,-0.05,-2.75,0.1444
0.04,0.93,0.24,2.85,0.12,-0.79,-24.61,-9.67,-19.34,1.32,-0.04,-2.74,0.1445
0.04,0.94,0.22,2.98,1.95,0.08,-24.9,-9.38,-19.04,1.33,-0.04,-2.74,0.1446
0.06,0.93,0.23,2.91,-0.76,-0.79,-24.32,-10.25,-19.92,1.32,-0.06,-2.71,0.1448
0.05,0.93,0.25,3.18,-2.76,-1.85,-24.02,-10.25,-19.34,1.3,-0.05,-2.71,0.1449
0.04,0.93,0.26,3.21,-0.5,-1.08,-24.9,-9.67,-19.34,1.29,-0.04,-2.74,0.145
0.04,0.92,0.27,3.56,2.96,0.54,-24.32,-9.96,-19.63,1.28,-0.05,-2.74,0.1451
0.04,0.93,0.26,3.15,-0.5,-0.76,-24.02,-9.67,-19.63,1.3,-0.04,-2.74,0.1453
0.05,0.93,0.24,3.25,-1.11,-0.57,-24.32,-9.96,-19.34,1.31,-0.05,-2.72,0.1454
0.04,0.94,0.23,3.4,-0.67,-0.69,-25.2,-9.67,-19.34,1.33,-0.04,-2.74,0.1455
0.04,0.93,0.23,3.45,-0.2,0.1,-24.61,-9.67,-19.63,1.32,-0.04,-2.74,0.1456
0.05,0.93,0.25,3.31,-0.76,-0.6,-24.9,-9.67,-19.34,1.3,-0.05,-2.74,0.1458
0.04,0.93,0.25,3.23,-1.47,-0.65,-24.9,-9.96,-19.63,1.31,-0.04,-2.73,0.1459
0.04,0.93,0.24,3.1,-0.52,-0.74,-24.32,-9.67,-19.92,1.32,-0.05,-2.74,0.146
0.05,0.93,0.24,3.37,-0.69,-0.66,-24.61,-9.96,-19.34,1.32,-0.05,-2.72,0.1461
0.04,0.93,0.24,3.23,-0.33,-0.48,-24.61,-9.96,-19.04,1.31,-0.04,-2.72,0.1463
0.05,0.93,0.25,3.33,-1.11,-0.56,-24.61,-9.96,-19.63,1.31,-0.05,-2.73,0.1464
0.04,0.93,0.24,3.56,0.09,0.15,-24.32,-9.38,-19.04,1.32,-0.05,-2.74,0.1465
0.05,0.94,0.24,2.21,-0.03,0.5,-24.9,-9.96,-20.21,1.32,-0.05,-2.74,0.1466
0.05,0.93,0.25,2.12,-1.45,-0.42,-24.9,-10.25,-19.63,1.31,-0.05,-2.72,0.1467
0.05,0.93,0.24,1.82,-1.34,-0.07,-24.61,-9.96,-19.92,1.31,-0.05,-2.73,0.1469
0.05,0.93,0.24,1.61,-0.43,0.26,-24.61,-9.96,-20.21,1.32,-0.05,-2.73,0.147
0.05,0.93,0.23,1.19,-0.35,0.44,-24.9,-9.67,-19.92,1.32,-0.05,-2.74,0.1471
0.04,0.94,0.23,0.6,0.9,1.11,-24.61,-9.96,-19.63,1.33,-0.04,-2.73,0.1472
0.05,0.93,0.25,1.24,-0.82,0.52,-24.9,-9.96,-19.04,1.3,-0.05,-2.72,0.1474
0.06,0.93,0.26,1.14,-1.92,-0.11,-24.61,-9.67,-19.92,1.3,-0.06,-2.73,0.1475
0.05,0.92,0.26,1.76,-1.51,0.0,-24.61,-9.96,-19.63,1.29,-0.06,-2.73,0.1476
0.06,0.92,0.26,1.89,0.08,0.76,-24.32,-9.96,-19.04,1.29,-0.06,-2.72,0.1477
0.06,0.92,0.26,2.37,-1.52,-0.85,-24.32,-10.25,-19.04,1.29,-0.07,-2.7,0.1479
0.07,0.92,0.25,3.2,-4.05,-1.84,-24.61,-10.25,-19.04,1.3,-0.07,-2.7,0.148
0.06,0.92,0.26,3.03,-1.86,-1.32,-24.32,-9.67,-18.75,1.29,-0.06,-2.72,0.1481
0.06,0.93,0.26,3.56,-3.13,-1.4,-24.61,-10.55,-19.34,1.29,-0.06,-2.7,0.1482
0.06,0.93,0.25,3.36,-1.71,-1.17,-24.9,-10.55,-18.75,1.3,-0.06,-2.69,0.1484
0.06,0.93,0.25,3.34,-1.98,-1.27,-24.61,-10.25,-18.75,1.3,-0.06,-2.7,0.1485
0.06,0.93,0.26,3.01,-2.01,-1.1,-24.02,-10.55,-19.04,1.29,-0.06,-2.69,0.1486
0.06,0.93,0.25,3.01,-0.92,-1.01,-24.9,-9.96,-19.63,1.3,-0.06,-2.72,0.1488
0.06,0.92,0.25,2.24,-0.69,-0.37,-25.2,-9.96,-19.34,1.3,-0.06,-2.72,0.1489
0.06,0.93,0.24,2.58,-0.34,-0.66,-24.32,-9.96,-19.63,1.31,-0.06,-2.71,0.149
0.06,0.93,0.24,2.4,-0.24,-0.93,-24.32,-9.96,-19.34,1.31,-0.06,-2.71,0.1491
0.06,0.93,0.26,2.51,-0.81,-0.99,-24.9,-10.55,-19.34,1.3,-0.06,-2.7,0.1493
0.06,0.92,0.26,2.72,-1.0,-0.69,-24.9,-10.25,-19.04,1.29,-0.07,-2.7,0.1494
0.07,0.93,0.24,3.38,-1.02,-0.39,-24.02,-9.38,-19.34,1.31,-0.07,-2.73,0.1495
0.06,0.93,0.25,2.78,-0.73,-0.75,-24.9,-9.67,-19.34,1.31,-0.06,-2.73,0.1496
0.06,0.93,0.25,2.86,-0.72,-0.66,-24.9,-10.25,-19.34,1.3,-0.06,-2.71,0.1498
0.06,0.92,0.26,2.82,-1.78,-0.96,-25.2,-10.25,-19.34,1.29,-0.06,-2.71,0.1499
0.05,0.93,0.25,3.11,-0.07,-0.45,-24.32,-10.25,-19.34,1.3,-0.05,-2.71,0.15
0.06,0.93,0.25,3.23,-1.03,-0.72,-24.61,-10.25,-19.04,1.3,-0.06,-2.7,0.1501
0.06,0.93,0.25,3.07,-1.06,-0.82,-24.02,-9.67,-19.04,1.3,-0.06,-2.72,0.1503
0.06,0.93,0.25,2.84,-1.17,-0.66,-24.32,-9.96,-19.34,1.3,-0.06,-2.71,0.1504
0.07,0.93,0.26,2.82,-1.82,-0.91,-23.73,-9.96,-19.34,1.29,-0.07,-2.71,0.1505
0.06,0.93,0.25,2.95,-1.11,-0.71,-24.32,-10.55,-19.63,1.3,-0.06,-2.7,0.1506
0.06,0.93,0.25,2.9,-1.27,-1.07,-24.61,-10.25,-19.34,1.3,-0.06,-2.7,0.1508
0.06,0.92,0.25,3.02,-1.44,-0.92,-24.02,-9.38,-19.34,1.3,-0.06,-2.73,0.1509
0.06,0.93,0.25,2.78,-0.37,-0.65,-24.02,-9.96,-19.92,1.3,-0.06,-2.72,0.151
0.06,0.93,0.26,2.92,-0.43,-0.75,-24.02,-9.96,-19.04,1.29,-0.06,-2.71,0.1512
0.06,0.93,0.25,2.82,-0.17,-0.61,-25.2,-9.08,-19.63,1.3,-0.07,-2.75,0.1513
0.06,0.92,0.25,2.77,0.61,-0.44,-24.32,-10.84,-18.75,1.3,-0.06,-2.68,0.1514
0.06,0.92,0.25,2.88,-0.61,-0.7,-24.61,-9.67,-19.04,1.29,-0.06,-2.72,0.1515
0.05,0.93,0.24,2.8,0.43,-0.47,-24.9,-10.25,-18.75,1.31,-0.05,-2.7,0.1517
0.06,0.93,0.27,3.01,-1.48,-0.92,-24.9,-9.67,-19.34,1.29,-0.07,-2.73,0.1518
0.06,0.92,0.28,3.94,2.16,0.36,-23.73,-9.96,-19.04,1.27,-0.06,-2.72,0.1519
0.07,0.91,0.29,4.69,-1.05,-1.19,-24.32,-9.96,-20.21,1.26,-0.08,-2.72,0.152
0.05,0.93,0.26,6.1,1.9,-0.22,-25.2,-9.38,-19.34,1.29,-0.05,-2.75,0.1522
0.09,0.94,0.23,7.05,-7.59,-4.04,-24.32,-9.67,-19.63,1.32,-0.09,-2.7,0.1523
0.05,0.92,0.25,8.13,-4.94,-1.84,-24.02,-9.67,-19.34,1.3,-0.05,-2.74,0.1524
0.05,0.94,0.24,8.85,-6.29,-0.74,-25.2,-9.96,-19.92,1.32,-0.06,-2.73,0.1526
0.08,0.92,0.26,8.88,-11.28,-6.17,-24.9,-9.67,-19.63,1.29,-0.08,-2.72,0.1527
0.07,0.94,0.23,10.03,-16.18,-5.39,-24.61,-9.67,-20.21,1.32,-0.07,-2.72,0.1528
0.09,0.94,0.21,10.11,-25.18,-10.25,-24.9,-9.38,-19.63,1.33,-0.09,-2.71,0.153
0.02,1.0,0.13,10.29,-17.94,-4.91,-25.49,-9.67,-19.63,1.44,-0.02,-2.72,0.1531
0.04,0.98,0.1,9.16,-5.83,1.69,-25.49,-9.67,-20.8,1.46,-0.04,-2.71,0.1532
0.03,0.95,0.18,4.69,-13.74,2.33,-24.9,-9.96,-19.34,1.38,-0.03,-2.72,0.1534
0.08,0.97,0.16,4.67,-32.23,-2.59,-25.2,-9.08,-18.46,1.39,-0.08,-2.7,0.1535
0.12,0.98,0.19,3.1,-38.41,-0.92,-24.9,-9.67,-18.46,1.34,-0.12,-2.66,0.1536
0.13,0.94,0.22,-0.12,-26.15,4.03,-24.9,-10.25,-18.16,1.31,-0.13,-2.63,0.1538
0.13,0.99,0.09,1.61,4.92,14.73,-24.9,-10.84,-18.16,1.41,-0.13,-2.57,0.1539
0.36,0.96,0.15,-8.93,-29.12,-9.17,-24.9,-10.84,-17.58,1.18,-0.35,-2.49,0.154
0.6,0.96,0.25,-6.43,-142.81,-55.54,-23.73,-11.43,-16.41,0.98,-0.54,-2.4,0.1542
0.03,0.91,0.34,8.48,-42.83,18.36,-23.73,-12.01,-16.41,1.21,-0.03,-2.65,0.1543
0.12,0.84,0.28,10.29,71.29,76.23,-24.02,-12.3,-16.41,1.22,-0.14,-2.56,0.1544
0.22,0.88,0.23,11.14,115.65,88.42,-24.9,-12.89,-17.29,1.22,-0.24,-2.48,0.1545
0.62,0.78,0.2,-7.9,42.02,26.63,-25.2,-13.18,-18.16,0.88,-0.66,-2.34,0.1547
-0.33,1.04,0.41,-10.22,-25.38,-34.05,-25.2,-13.18,-19.04,1.1,0.29,-2.92,0.1548
0.49,0.94,0.09,2.43,77.05,16.92,-24.9,-13.48,-18.75,1.08,-0.48,-2.36,0.1549
0.29,0.93,0.27,-3.93,89.35,4.65,-24.9,-12.3,-19.34,1.17,-0.29,-2.51,0.1551
0.2,0.9,0.36,0.9,-11.68,-19.18,-24.9,-11.72,-19.92,1.14,-0.21,-2.6,0.1552
0.14,0.94,0.3,1.37,-2.99,-10.64,-24.61,-12.01,-19.34,1.23,-0.14,-2.61,0.1553
0.13,0.89,0.29,3.64,20.79,1.72,-24.32,-11.43,-19.92,1.23,-0.13,-2.64,0.1554
0.18,0.89,0.25,3.96,-12.2,-1.82,-24.32,-12.01,-20.51,1.23,-0.2,-2.57,0.1556
0.17,0.94,0.22,2.0,-20.49,-3.62,-24.02,-12.3,-19.92,1.28,-0.17,-2.56,0.1557
0.2,0.96,0.15,5.62,-33.26,-12.82,-24.02,-12.3,-19.92,1.32,-0.2,-2.53,0.1558
0.16,0.93,0.24,12.23,-60.3,-18.26,-24.32,-12.89,-19.34,1.27,-0.16,-2.55,0.156
0.22,0.91,0.35,15.13,-64.57,-12.59,-24.61,-11.72,-19.04,1.15,-0.22,-2.58,0.1561
0.33,0.89,0.37,11.53,-75.07,-20.06,-24.32,-12.01,-19.34,1.06,-0.33,-2.51,0.1562
0.21,0.93,0.27,10.77,-66.83,-20.0,-25.2,-12.89,-17.58,1.22,-0.21,-2.51,0.1564
0.44,0.88,0.17,4.59,-61.92,-21.89,-24.02,-11.72,-17.58,1.08,-0.46,-2.42,0.1565
0.44,0.97,0.15,0.47,-128.98,-55.35,-24.32,-12.6,-15.82,1.13,-0.42,-2.38,0.1566
0.25,0.97,0.13,-2.93,-121.48,-54.57,-23.44,-12.89,-15.53,1.29,-0.25,-2.4,0.1568
0.24,0.95,0.1,-0.04,-40.39,-26.64,-22.85,-12.89,-15.23,1.3,-0.25,-2.39,0.1569
0.19,0.97,0.14,4.18,-13.96,-13.75,-22.85,-13.18,-14.65,1.33,-0.19,-2.39,0.157
0.28,0.92,0.11,-2.04,9.27,-2.4,-23.44,-12.89,-15.23,1.26,-0.29,-2.38,0.1571
0.24,0.99,0.08,-4.49,22.31,-0.18,-23.44,-13.48,-15.23,1.33,-0.23,-2.37,0.1573
0.29,1.0,0.1,-8.76,16.23,-3.49,-23.14,-12.6,-15.53,1.27,-0.28,-2.39,0.1574
0.24,0.95,0.13,-7.71,32.74,-0.85,-22.56,-11.72,-15.53,1.29,-0.25,-2.44,0.1575
0.19,1.0,0.12,-8.37,36.2,0.78,-23.14,-11.72,-15.82,1.35,-0.19,-2.47,0.1577
0.14,0.91,0.29,-7.63,30.53,7.4,-21.97,-11.13,-15.53,1.23,-0.15,-2.56,0.1578
0.19,0.93,0.31,-1.99,37.71,10.19,-21.97,-11.13,-16.11,1.2,-0.19,-2.55,0.1579
0.16,0.97,0.18,-4.49,0.8,3.05,-22.27,-11.13,-15.82,1.33,-0.16,-2.52,0.158
0.14,0.94,0.22,-8.73,6.51,10.06,-22.85,-11.43,-16.7,1.3,-0.14,-2.55,0.1582
0.16,0.93,0.25,-7.19,15.4,16.17,-22.56,-11.72,-16.41,1.26,-0.17,-2.53,0.1583
0.24,0.94,0.27,-4.95,-0.09,8.8,-22.85,-11.72,-15.82,1.21,-0.24,-2.49,0.1584
0.2,0.92,0.21,-6.52,-7.05,3.61,-22.56,-12.3,-16.41,1.27,-0.21,-2.47,0.1585
0.2,0.92,0.29,-5.33,17.73,13.28,-22.27,-11.72,-16.11,1.2,-0.21,-2.52,0.1587
0.29,0.89,0.3,-1.08,1.55,4.35,-22.85,-11.72,-15.53,1.13,-0.3,-2.47,0.1588
0.25,0.88,0.33,-0.69,-9.29,-1.6,-22.56,-12.3,-15.23,1.13,-0.26,-2.47,0.1589
0.21,0.89,0.29,1.17,4.68,3.35,-22.27,-12.6,-15.53,1.18,-0.23,-2.47,0.1591
0.26,0.89,0.33,3.71,0.7,0.65,-22.27,-12.01,-15.53,1.13,-0.27,-2.48,0.1592
0.26,0.89,0.3,4.81,-4.37,-1.91,-22.56,-12.01,-15.82,1.16,-0.26,-2.48,0.1593
0.25,0.91,0.29,4.11,-0.73,-1.07,-22.85,-12.01,-15.53,1.17,-0.25,-2.48,0.1594
0.25,0.9,0.29,3.68,-1.9,-1.44,-22.27,-12.01,-15.53,1.17,-0.26,-2.47,0.1596
0.24,0.92,0.25,4.47,-4.86,-3.32,-22.27,-12.01,-16.11,1.21,-0.24,-2.48,0.1597
0.24,0.9,0.31,3.81,-4.19,-3.19,-22.85,-11.72,-15.23,1.17,-0.24,-2.5,0.1599
0.22,0.89,0.31,4.61,0.11,-0.9,-22.56,-12.01,-15.53,1.17,-0.23,-2.5,0.16
0.23,0.91,0.28,4.2,-0.44,-0.72,-22.56,-11.72,-15.82,1.19,-0.24,-2.49,0.1601
0.23,0.9,0.28,3.8,-1.74,-0.15,-21.97,-12.01,-16.11,1.19,-0.24,-2.48,0.1602
0.23,0.91,0.28,3.33,-0.03,0.6,-22.85,-12.01,-16.41,1.19,-0.24,-2.5,0.1604
0.23,0.91,0.27,2.49,-2.75,-0.46,-22.27,-12.01,-15.82,1.2,-0.24,-2.48,0.1606
0.23,0.91,0.28,1.43,-1.56,0.3,-22.27,-12.3,-16.11,1.19,-0.24,-2.48,0.1607
0.23,0.91,0.27,1.23,1.55,1.06,-22.56,-12.3,-15.53,1.2,-0.24,-2.47,0.1608
0.25,0.9,0.29,1.88,-0.92,-0.49,-22.27,-12.01,-15.82,1.17,-0.26,-2.48,0.1609
0.24,0.9,0.29,2.76,-3.81,-1.78,-23.14,-11.72,-15.82,1.17,-0.25,-2.5,0.1611
0.24,0.9,0.28,2.8,-2.98,-1.79,-22.56,-12.01,-15.53,1.18,-0.25,-2.48,0.1612
0.24,0.91,0.28,2.51,-2.37,-1.19,-22.27,-12.01,-15.53,1.19,-0.25,-2.47,0.1613
0.24,0.9,0.29,2.67,-2.6,-0.99,-22.56,-12.01,-15.82,1.17,-0.25,-2.49,0.1614
0.24,0.91,0.28,2.48,-3.7,-0.66,-22.27,-12.3,-16.41,1.19,-0.25,-2.48,0.1616
0.23,0.91,0.28,2.4,-1.24,0.16,-22.56,-12.89,-15.53,1.19,-0.24,-2.45,0.1617
0.24,0.91,0.28,2.36,0.46,1.04,-22.85,-12.01,-14.94,1.18,-0.25,-2.47,0.1618
0.25,0.9,0.28,2.59,1.47,2.01,-22.27,-12.3,-15.53,1.18,-0.26,-2.46,0.1619
0.24,0.91,0.28,2.3,2.88,2.61,-22.85,-12.01,-14.94,1.19,-0.25,-2.47,0.1621
0.24,0.9,0.27,1.68,2.66,2.27,-22.85,-12.3,-16.11,1.18,-0.25,-2.47,0.1622
0.26,0.91,0.31,2.49,0.11,0.55,-22.27,-12.3,-15.53,1.16,-0.26,-2.46,0.1623
0.27,0.86,0.33,7.91,-7.69,-3.52,-23.44,-12.6,-16.41,1.11,-0.28,-2.48,0.1624
0.26,0.92,0.28,10.22,-13.89,-6.17,-22.85,-12.01,-15.53,1.18,-0.26,-2.47,0.1626
0.27,0.89,0.28,11.12,-12.8,-8.49,-22.56,-12.3,-16.11,1.16,-0.28,-2.46,0.1627
0.27,0.94,0.25,5.89,14.14,2.24,-22.56,-12.3,-16.11,1.2,-0.27,-2.45,0.1628
0.18,0.96,0.16,-0.37,49.7,18.49,-22.85,-12.01,-16.11,1.33,-0.18,-2.48,0.1629
0.21,0.91,0.28,-1.09,22.15,11.48,-22.85,-12.3,-16.41,1.2,-0.22,-2.5,0.1631
0.24,0.88,0.3,-1.13,-7.77,-0.31,-22.85,-12.3,-16.7,1.16,-0.25,-2.49,0.1632
0.26,0.91,0.31,0.76,5.49,1.54,-23.14,-11.72,-15.82,1.16,-0.26,-2.5,0.1633
0.33,0.91,0.3,4.78,-11.09,-9.71,-22.27,-11.72,-16.7,1.12,-0.33,-2.46,0.1635
0.29,0.9,0.28,6.71,-30.22,-19.94,-23.14,-12.01,-15.23,1.15,-0.29,-2.46,0.1636
0.2,0.91,0.28,7.05,-15.2,-11.07,-22.56,-11.13,-15.53,1.21,-0.21,-2.53,0.1637
0.19,0.93,0.21,3.2,4.91,0.6,-22.27,-12.3,-15.53,1.28,-0.2,-2.46,0.1638
0.23,0.93,0.22,-0.57,10.17,0.91,-22.56,-12.6,-16.11,1.24,-0.24,-2.45,0.164
0.25,0.89,0.33,1.98,3.09,-4.82,-22.27,-11.13,-15.82,1.13,-0.26,-2.52,0.1641
0.26,0.89,0.29,6.15,-10.71,-12.34,-22.56,-10.84,-16.41,1.16,-0.27,-2.52,0.1642
0.13,0.94,0.28,6.92,-6.99,-4.94,-22.56,-11.43,-16.41,1.25,-0.13,-2.57,0.1644
0.16,0.92,0.26,7.14,5.91,7.0,-22.27,-11.13,-16.11,1.26,-0.16,-2.55,0.1645
0.25,0.93,0.23,5.71,1.81,3.5,-22.85,-11.72,-15.53,1.22,-0.25,-2.47,0.1646
0.24,0.93,0.25,3.48,16.63,7.88,-21.68,-11.13,-16.41,1.22,-0.24,-2.51,0.1647
0.2,0.95,0.21,0.07,16.57,6.29,-23.14,-12.3,-16.7,1.27,-0.21,-2.48,0.1649
0.22,0.91,0.31,1.97,1.38,2.21,-22.56,-12.01,-16.99,1.18,-0.22,-2.52,0.165
0.23,0.92,0.27,1.76,0.99,1.8,-22.85,-11.72,-16.41,1.21,-0.23,-2.51,0.1651
0.21,0.92,0.25,1.85,10.41,6.32,-22.56,-11.43,-16.41,1.23,-0.21,-2.52,0.1652
0.23,0.92,0.26,2.8,5.43,4.09,-22.56,-11.72,-16.41,1.21,-0.24,-2.5,0.1654
0.23,0.92,0.27,2.44,1.4,2.17,-23.44,-12.01,-16.41,1.2,-0.24,-2.5,0.1655
0.22,0.91,0.27,2.92,5.62,3.78,-23.14,-11.72,-16.7,1.21,-0.23,-2.52,0.1656
0.24,0.91,0.28,3.29,0.54,1.39,-22.85,-11.72,-16.41,1.18,-0.25,-2.5,0.1657
0.24,0.93,0.25,3.0,-1.42,0.1,-23.14,-11.72,-16.41,1.21,-0.24,-2.5,0.1659
0.23,0.92,0.26,2.4,-2.2,-0.31,-23.14,-11.43,-16.41,1.21,-0.24,-2.51,0.166
0.24,0.91,0.27,2.18,-4.44,-1.71,-22.56,-12.3,-16.7,1.2,-0.24,-2.48,0.1661
0.23,0.92,0.26,2.64,-4.51,-2.34,-23.14,-11.72,-16.7,1.21,-0.24,-2.5,0.1662
0.24,0.92,0.26,2.46,-5.22,-3.34,-23.44,-12.01,-15.82,1.2,-0.25,-2.48,0.1664
0.24,0.91,0.26,2.33,-6.41,-3.48,-22.27,-12.3,-15.82,1.2,-0.25,-2.46,0.1665
0.23,0.92,0.26,2.4,-2.61,-1.82,-22.85,-12.3,-16.41,1.21,-0.24,-2.48,0.1666
0.24,0.92,0.26,2.08,-2.04,-2.02,-23.44,-11.72,-17.29,1.2,-0.24,-2.51,0.1667
0.23,0.91,0.27,1.88,-1.69,-0.97,-23.44,-12.6,-16.99,1.2,-0.24,-2.49,0.1669
0.23,0.91,0.27,1.81,-1.33,-1.38,-23.14,-11.72,-16.41,1.2,-0.24,-2.51,0.167
0.23,0.91,0.28,1.75,-4.44,-2.49,-22.85,-11.72,-16.11,1.19,-0.24,-2.5,0.1671
0.23,0.92,0.27,1.58,-5.17,-3.0,-22.27,-12.01,-15.82,1.21,-0.24,-2.48,0.1672
0.23,0.92,0.26,1.51,-2.46,-1.62,-22.27,-12.01,-15.82,1.21,-0.23,-2.48,0.1674
0.24,0.92,0.26,1.45,-2.27,-1.17,-22.85,-11.72,-15.82,1.2,-0.24,-2.49,0.1675
0.23,0.91,0.27,1.8,-0.18,-0.02,-22.27,-12.01,-16.7,1.2,-0.24,-2.49,0.1676
0.23,0.91,0.28,1.52,-0.89,-0.09,-22.56,-11.72,-16.11,1.19,-0.24,-2.5,0.1677
0.24,0.91,0.28,2.01,-1.32,-0.03,-23.44,-12.01,-16.11,1.19,-0.24,-2.49,0.1679
0.23,0.92,0.26,1.69,2.12,0.98,-22.85,-11.13,-16.11,1.21,-0.24,-2.52,0.168
0.24,0.91,0.28,1.86,0.82,0.33,-22.56,-12.3,-16.41,1.19,-0.24,-2.48,0.1681
0.25,0.91,0.29,2.32,0.14,0.02,-22.56,-12.01,-15.82,1.17,-0.25,-2.48,0.1682
0.25,0.91,0.28,2.72,-0.1,-0.6,-22.85,-11.43,-16.11,1.18,-0.26,-2.5,0.1684
0.24,0.91,0.27,2.72,0.53,-0.81,-22.27,-11.43,-16.11,1.19,-0.25,-2.5,0.1685
0.24,0.91,0.27,2.51,0.54,-0.96,-21.97,-11.72,-15.82,1.19,-0.25,-2.48,0.1686
0.24,0.9,0.3,3.24,-2.51,-1.95,-23.14,-12.6,-16.11,1.16,-0.25,-2.47,0.1688
0.23,0.91,0.27,3.32,0.44,-0.81,-23.14,-11.72,-15.82,1.2,-0.24,-2.5,0.1689
0.24,0.92,0.26,2.63,-1.01,-1.19,-22.85,-12.01,-16.11,1.2,-0.25,-2.48,0.169
0.23,0.91,0.27,2.43,-0.42,-1.03,-23.44,-11.72,-16.11,1.2,-0.24,-2.51,0.1727
0.23,0.91,0.28,2.54,-0.66,-0.72,-23.14,-11.72,-15.82,1.19,-0.24,-2.5,0.2463
0.24,0.91,0.28,2.18,-1.71,-1.15,-22.56,-12.6,-16.11,1.19,-0.24,-2.47,0.32
0.23,0.91,0.28,2.53,-0.98,-0.76,-21.97,-12.01,-16.11,1.19,-0.24,-2.49,0.3898
0.23,0.91,0.28,2.7,0.33,-0.04,-22.56,-11.72,-16.7,1.19,-0.24,-2.51,0.4635
0.23,0.91,0.28,2.78,0.34,-0.19,-22.56,-11.72,-15.53,1.19,-0.24,-2.49,0.5373
0.23,0.91,0.28,2.37,0.14,-0.41,-22.85,-12.6,-16.11,1.19,-0.24,-2.47,0.6109
0.23,0.91,0.29,2.69,-0.23,-0.66,-22.27,-12.3,-16.41,1.19,-0.24,-2.48,0.6846
0.23,0.91,0.28,2.69,-0.43,-0.86,-22.27,-12.01,-16.99,1.19,-0.24,-2.5,0.7544
0.23,0.9,0.28,2.63,0.55,-0.61,-22.56,-12.01,-16.41,1.19,-0.24,-2.49,0.8281
0.23,0.91,0.28,2.74,-1.4,-1.07,-23.14,-12.3,-16.11,1.19,-0.24,-2.49,0.9019
0.23,0.91,0.28,2.65,-0.82,-0.76,-23.44,-12.3,-16.11,1.19,-0.24,-2.49,0.9755
0.23,0.9,0.28,3.1,-0.41,-0.69,-22.85,-12.6,-15.82,1.19,-0.24,-2.47,1.0492
0.23,0.91,0.28,2.83,-1.07,-0.92,-22.85,-12.01,-16.11,1.19,-0.24,-2.49,1.1229
0.23,0.91,0.28,2.59,-1.25,-0.47,-22.56,-11.72,-15.82,1.19,-0.24,-2.5,1.1927
0.23,0.91,0.28,2.49,-0.4,-0.08,-22.85,-12.01,-16.41,1.19,-0.24,-2.49,1.2664
0.23,0.91,0.28,2.7,-0.52,-0.42,-22.85,-12.01,-15.82,1.19,-0.24,-2.49,1.3401
0.24,0.91,0.28,2.57,0.1,-0.05,-22.56,-11.13,-16.41,1.18,-0.25,-2.52,1.4138
0.23,0.91,0.28,2.82,-0.82,-0.22,-21.97,-12.01,-16.11,1.19,-0.24,-2.48,1.4875
0.23,0.9,0.28,2.77,-0.45,-0.5,-22.85,-12.3,-15.53,1.19,-0.24,-2.47,1.5572
0.23,0.91,0.28,2.75,-0.56,-0.34,-22.85,-12.01,-16.41,1.19,-0.24,-2.49,1.6309
0.23,0.91,0.28,2.86,-0.85,-0.6,-22.27,-12.01,-15.82,1.19,-0.24,-2.48,1.7047
0.23,0.91,0.28,2.72,-1.4,-0.88,-22.27,-12.3,-15.53,1.19,-0.24,-2.47,1.7784
0.23,0.91,0.28,2.2,-1.22,-0.64,-23.14,-12.3,-15.82,1.19,-0.24,-2.48,1.8521
0.23,0.91,0.28,2.25,-1.81,-0.85,-22.56,-12.01,-16.41,1.19,-0.24,-2.49,1.9219
0.24,0.91,0.29,2.61,-0.92,-0.19,-22.85,-12.01,-15.82,1.18,-0.24,-2.49,1.9955
0.23,0.91,0.28,2.65,-0.56,-0.06,-22.27,-12.3,-15.82,1.19,-0.24,-2.47,2.0692
0.24,0.91,0.28,2.17,-1.16,-0.57,-23.14,-12.6,-16.41,1.19,-0.24,-2.47,2.1429
0.24,0.9,0.28,2.16,0.24,0.54,-21.97,-11.13,-14.94,1.19,-0.24,-2.5,2.2166
0.23,0.91,0.29,2.66,-0.92,-0.39,-23.14,-12.3,-16.7,1.18,-0.24,-2.49,2.2903
0.24,0.91,0.27,2.77,-0.5,-0.16,-23.14,-12.01,-15.82,1.19,-0.25,-2.49,2.3601
0.24,0.9,0.28,2.81,-0.11,0.02,-22.85,-12.3,-16.11,1.18,-0.25,-2.48,2.4338
0.24,0.91,0.28,2.67,-0.78,-0.31,-23.14,-11.72,-15.82,1.18,-0.25,-2.5,2.5076
0.24,0.9,0.28,2.88,-0.85,-0.58,-22.85,-12.6,-15.82,1.18,-0.25,-2.46,2.5812
0.24,0.91,0.28,2.78,-1.14,-0.33,-21.97,-11.72,-15.82,1.18,-0.25,-2.49,2.655
0.23,0.91,0.28,2.94,-1.08,-0.47,-22.85,-12.3,-16.11,1.19,-0.24,-2.48,2.7248
0.24,0.91,0.28,2.55,-1.27,-0.6,-23.14,-12.3,-16.11,1.18,-0.25,-2.48,2.7984
0.24,0.9,0.28,2.94,-1.21,-0.85,-22.56,-12.3,-16.11,1.18,-0.25,-2.48,2.8722
0.24,0.91,0.28,2.51,-0.92,-0.74,-22.56,-12.3,-16.11,1.18,-0.25,-2.47,2.9458
0.24,0.91,0.28,2.62,-0.64,-0.64,-21.68,-11.72,-16.41,1.19,-0.25,-2.49,3.0197
0.24,0.91,0.28,2.14,-0.6,-0.87,-22.27,-12.01,-16.41,1.19,-0.25,-2.49,3.0932
0.24,0.91,0.29,2.61,-0.71,-0.98,-22.85,-11.72,-16.41,1.18,-0.25,-2.5,3.163
0.24,0.91,0.28,2.23,-0.62,-0.99,-22.85,-12.89,-15.82,1.19,-0.25,-2.45,3.2368
0.25,0.92,0.28,2.27,-3.65,-1.87,-22.27,-11.72,-15.82,1.19,-0.25,-2.49,3.3104
0.23,0.9,0.29,2.28,-3.25,-2.19,-22.56,-12.3,-16.11,1.18,-0.24,-2.48,3.3841
0.23,0.91,0.28,2.22,1.75,0.11,-22.85,-12.89,-16.41,1.19,-0.24,-2.46,3.4578
0.24,0.9,0.28,2.64,-0.34,-0.69,-23.44,-12.3,-15.82,1.18,-0.25,-2.48,3.5276
0.24,0.9,0.29,2.84,0.41,-0.75,-22.27,-12.3,-16.11,1.18,-0.24,-2.48,3.6013
0.24,0.91,0.28,3.04,1.65,-0.1,-23.73,-11.72,-15.53,1.18,-0.25,-2.5,3.675
0.23,0.91,0.29,2.77,-0.33,-0.77,-22.56,-10.84,-16.41,1.18,-0.24,-2.54,3.7487
0.23,0.91,0.28,3.13,0.59,-0.4,-22.56,-12.01,-15.82,1.19,-0.24,-2.49,3.8224
0.23,0.91,0.28,2.9,-0.43,-0.91,-22.85,-12.01,-15.53,1.19,-0.24,-2.48,3.8961
0.23,0.9,0.28,2.86,-0.32,-0.37,-22.56,-12.6,-16.11,1.18,-0.24,-2.47,3.9659
0.24,0.9,0.29,3.01,-0.71,-0.71,-22.56,-12.01,-16.41,1.18,-0.25,-2.49,4.0397
0.23,0.91,0.28,2.69,-1.37,-0.53,-22.85,-11.72,-16.11,1.19,-0.24,-2.5,4.1132
0.23,0.91,0.29,3.02,-1.4,-0.58,-22.85,-12.01,-15.82,1.19,-0.24,-2.49,4.187
0.23,0.9,0.29,2.86,-0.34,-0.34,-22.85,-12.01,-16.11,1.18,-0.24,-2.49,4.2606
0.23,0.9,0.28,3.0,-0.5,-0.35,-23.14,-12.3,-15.53,1.19,-0.24,-2.48,4.3303
0.23,0.91,0.29,3.04,-0.72,-0.32,-22.85,-10.84,-15.82,1.19,-0.24,-2.53,4.4042
0.24,0.9,0.28,2.8,0.11,0.04,-22.27,-12.3,-15.23,1.18,-0.25,-2.46,4.4778
0.24,0.9,0.28,3.08,0.01,-0.26,-22.56,-11.72,-15.82,1.19,-0.25,-2.49,4.5515
0.23,0.91,0.29,3.23,-0.92,-0.34,-22.56,-12.01,-15.53,1.18,-0.24,-2.48,4.6253
0.24,0.92,0.27,2.61,-0.46,-0.02,-22.85,-12.01,-16.41,1.2,-0.24,-2.49,4.695
0.23,0.91,0.27,1.34,1.82,0.99,-23.14,-11.72,-16.11,1.2,-0.24,-2.5,4.7687
0.25,0.9,0.31,2.79,-2.06,-1.01,-22.85,-12.01,-15.82,1.16,-0.25,-2.49,4.8424
0.23,0.91,0.29,3.35,0.65,-0.08,-23.44,-12.3,-16.7,1.18,-0.24,-2.5,4.9161
0.24,0.91,0.27,2.74,-2.33,-0.96,-22.56,-12.01,-16.11,1.19,-0.25,-2.48,4.9898
0.23,0.9,0.29,3.01,-2.09,-1.21,-22.85,-12.01,-16.41,1.18,-0.24,-2.5,5.0635
0.24,0.91,0.28,2.81,-2.19,-1.29,-22.27,-11.72,-16.11,1.19,-0.25,-2.49,5.1333
0.24,0.91,0.28,2.54,-1.29,-1.13,-23.14,-12.01,-15.82,1.19,-0.24,-2.49,5.2071
0.24,0.9,0.29,2.61,-1.78,-1.1,-21.97,-11.13,-16.11,1.17,-0.24,-2.52,5.2807
0.24,0.91,0.28,2.53,-1.06,-1.08,-22.27,-12.89,-16.7,1.19,-0.25,-2.46,5.3545
0.23,0.9,0.29,2.28,0.49,-0.93,-22.27,-12.89,-15.53,1.18,-0.24,-2.45,5.4281
0.23,0.9,0.28,2.59,1.56,-0.73,-22.85,-12.01,-16.41,1.19,-0.24,-2.5,5.498
0.24,0.91,0.28,2.06,-0.1,-1.14,-22.85,-11.43,-15.53,1.19,-0.24,-2.5,5.5719
0.23,0.9,0.29,2.24,-1.27,-1.67,-22.27,-12.6,-16.11,1.18,-0.24,-2.47,5.6453
0.23,0.91,0.29,1.85,2.66,0.55,-22.27,-12.3,-15.23,1.19,-0.23,-2.47,5.719
0.24,0.9,0.3,1.89,2.11,0.57,-22.27,-12.01,-15.82,1.17,-0.24,-2.49,5.7927
0.22,0.91,0.29,2.43,-0.81,-0.05,-22.56,-12.01,-15.82,1.19,-0.23,-2.49,5.8664
0.24,0.9,0.3,2.51,-3.46,-1.37,-22.56,-12.3,-15.82,1.17,-0.25,-2.48,5.9362
0.24,0.9,0.29,3.11,-1.4,-1.38,-22.56,-12.01,-15.53,1.17,-0.25,-2.48,6.0099
0.24,0.91,0.29,2.98,-0.23,-0.74,-21.97,-12.01,-16.41,1.18,-0.25,-2.49,6.0836
0.23,0.9,0.28,2.94,-4.43,-2.88,-22.85,-12.6,-16.11,1.19,-0.24,-2.47,6.1573
0.23,0.9,0.28,2.8,-1.99,-1.83,-23.44,-11.72,-16.11,1.18,-0.24,-2.51,6.231
0.23,0.9,0.29,1.88,0.22,-0.76,-22.85,-12.3,-15.82,1.18,-0.24,-2.48,6.3008
0.23,0.9,0.29,2.6,1.2,-0.14,-22.85,-12.01,-16.11,1.18,-0.24,-2.5,6.3744
0.23,0.9,0.3,2.29,0.14,0.35,-21.97,-12.3,-15.23,1.18,-0.24,-2.47,6.4481
0.23,0.9,0.3,2.37,-0.57,0.23,-22.56,-11.43,-14.94,1.18,-0.24,-2.5,6.5219
0.24,0.9,0.29,2.64,-1.26,-0.16,-22.85,-12.3,-15.82,1.18,-0.24,-2.48,6.5956
0.23,0.9,0.29,2.74,-1.41,-0.24,-22.85,-12.3,-15.82,1.18,-0.24,-2.48,6.6654
0.24,0.9,0.3,3.55,-1.41,-0.53,-22.27,-11.43,-16.11,1.17,-0.25,-2.51,6.7392
0.24,0.9,0.29,3.2,-0.54,-0.76,-22.56,-12.6,-15.53,1.18,-0.25,-2.46,6.8127
0.23,0.9,0.29,2.93,-2.62,-1.4,-22.85,-12.01,-16.41,1.18,-0.24,-2.5,6.8866
0.24,0.9,0.29,3.29,-1.15,-0.98,-22.85,-12.01,-16.11,1.17,-0.25,-2.49,6.9601
0.23,0.91,0.28,3.02,0.83,-0.35,-22.27,-11.72,-15.82,1.19,-0.24,-2.49,7.0338
0.24,0.9,0.28,3.2,-0.89,-1.36,-22.85,-11.72,-16.11,1.18,-0.25,-2.5,7.1038
0.24,0.91,0.29,2.85,0.65,-0.89,-22.56,-12.01,-15.82,1.18,-0.24,-2.49,7.1774
0.23,0.91,0.28,2.74,0.06,-0.71,-22.27,-11.72,-15.82,1.19,-0.24,-2.49,7.251
0.22,0.91,0.28,2.98,2.54,0.09,-22.27,-11.72,-15.82,1.2,-0.23,-2.5,7.3247
0.23,0.9,0.29,3.1,-0.65,-1.04,-21.97,-11.72,-16.11,1.18,-0.24,-2.5,7.3985
0.22,0.91,0.29,3.11,0.23,-0.53,-22.27,-11.72,-16.11,1.19,-0.23,-2.5,7.4682
0.22,0.9,0.29,3.31,0.49,0.42,-22.56,-12.01,-15.82,1.19,-0.23,-2.49,7.542
0.23,0.91,0.28,2.88,0.53,0.27,-22.56,-12.3,-15.82,1.2,-0.23,-2.48,7.6157
0.23,0.9,0.3,3.51,-0.58,0.0,-22.85,-12.3,-16.11,1.17,-0.24,-2.49,7.6893
0.23,0.91,0.28,3.46,-2.05,-0.78,-22.56,-12.3,-15.82,1.19,-0.24,-2.47,7.763
0.23,0.91,0.28,3.08,-0.94,-0.22,-22.27,-12.01,-16.11,1.19,-0.24,-2.49,7.8369
0.24,0.9,0.29,2.97,-0.69,-0.35,-22.56,-12.01,-16.41,1.18,-0.25,-2.49,7.9067
0.23,0.91,0.28,3.11,1.15,0.31,-22.85,-12.01,-16.11,1.19,-0.24,-2.49,7.9802
0.24,0.9,0.29,4.6,-2.69,-1.59,-23.73,-12.3,-16.11,1.17,-0.24,-2.49,8.0541
0.24,0.91,0.27,4.76,-2.69,-1.6,-23.14,-11.72,-16.11,1.19,-0.25,-2.5,8.1276
0.23,0.92,0.26,2.09,2.53,-0.01,-23.14,-12.01,-15.53,1.21,-0.24,-2.48,8.2012
0.23,0.91,0.28,2.13,-0.01,-0.16,-22.27,-11.43,-16.11,1.19,-0.24,-2.51,8.2713
0.23,0.91,0.28,1.82,-0.69,-0.31,-22.85,-12.01,-15.82,1.19,-0.24,-2.49,8.3448
0.23,0.91,0.29,2.82,-1.69,-0.49,-22.85,-12.3,-16.11,1.18,-0.24,-2.48,8.4193
0.23,0.9,0.28,2.77,-1.03,-0.07,-23.44,-12.01,-15.82,1.19,-0.24,-2.49,8.4922
0.24,0.9,0.28,2.8,-0.81,-0.6,-21.68,-12.3,-15.82,1.19,-0.24,-2.46,8.5658
0.23,0.91,0.28,2.62,-0.41,-0.34,-22.27,-11.72,-15.82,1.19,-0.24,-2.49,8.6358
0.23,0.91,0.28,2.88,-0.99,-0.67,-23.14,-12.01,-15.53,1.19,-0.24,-2.49,8.7094
0.23,0.91,0.29,2.8,-0.6,-0.57,-22.85,-12.01,-16.41,1.18,-0.24,-2.5,8.7831
0.23,0.9,0.28,2.86,-0.94,-0.85,-22.27,-11.43,-16.11,1.19,-0.24,-2.51,8.8568
0.24,0.91,0.28,3.14,-1.17,-0.72,-22.85,-12.01,-16.41,1.18,-0.24,-2.49,8.9305
0.23,0.91,0.27,2.63,-0.53,-0.47,-22.27,-12.01,-16.11,1.2,-0.24,-2.48,9.0042
0.23,0.91,0.29,2.97,-0.95,-0.16,-22.85,-12.01,-16.11,1.19,-0.24,-2.49,9.074
0.24,0.9,0.27,2.99,-1.45,-0.92,-22.27,-12.01,-15.82,1.19,-0.25,-2.48,9.1477
0.23,0.91,0.28,3.19,-2.25,-1.14,-22.27,-12.01,-15.23,1.19,-0.24,-2.47,9.2214
0.23,0.91,0.27,2.85,-0.98,-0.76,-22.27,-11.72,-16.11,1.19,-0.24,-2.49,9.295
0.23,0.91,0.28,2.38,-0.4,-0.6,-21.97,-12.6,-15.82,1.19,-0.24,-2.46,9.3688
0.23,0.91,0.28,2.62,0.64,0.24,-22.56,-12.01,-15.53,1.19,-0.24,-2.48,9.4386
0.24,0.91,0.28,1.93,-1.28,-0.83,-22.85,-11.72,-16.11,1.18,-0.25,-2.5,9.5123
0.23,0.91,0.28,2.15,0.47,-0.26,-22.85,-12.01,-16.11,1.19,-0.24,-2.49,9.586
0.23,0.91,0.28,2.03,0.24,-0.25,-22.85,-11.43,-16.11,1.19,-0.24,-2.51,9.6596
0.23,0.91,0.29,1.81,0.48,-0.35,-22.56,-11.72,-15.82,1.18,-0.24,-2.5,9.7333
0.24,0.91,0.28,1.79,-0.35,-1.2,-22.27,-11.72,-16.41,1.18,-0.25,-2.5,9.8071
0.23,0.91,0.27,1.43,-1.77,-1.22,-23.73,-11.72,-16.11,1.19,-0.24,-2.51,9.8768
0.23,0.91,0.28,1.95,-2.07,-1.64,-22.56,-11.43,-15.53,1.18,-0.24,-2.5,9.9505
0.23,0.91,0.29,1.93,-0.63,-1.2,-22.85,-11.43,-15.82,1.19,-0.24,-2.51,10.0243
0.23,0.91,0.29,1.98,-2.11,-1.67,-22.56,-11.43,-15.82,1.19,-0.24,-2.51,10.0979
0.23,0.92,0.26,2.39,0.19,-0.61,-22.27,-12.01,-16.11,1.21,-0.24,-2.48,10.1716
0.23,0.9,0.3,2.04,0.6,-0.36,-22.27,-11.72,-15.82,1.17,-0.24,-2.5,10.2414
0.23,0.9,0.3,3.02,-0.82,-0.63,-22.56,-12.01,-16.11,1.17,-0.24,-2.5,10.3151
0.23,0.9,0.29,2.95,-0.62,-1.05,-22.85,-12.01,-15.82,1.18,-0.24,-2.49,10.3888
0.24,0.9,0.29,3.55,-1.97,-0.93,-22.56,-11.72,-16.11,1.18,-0.24,-2.5,10.4624
0.23,0.91,0.29,3.11,-0.5,-0.15,-23.14,-12.6,-16.41,1.18,-0.24,-2.48,10.5367
0.24,0.9,0.28,2.83,-1.24,-0.66,-23.14,-12.01,-16.11,1.18,-0.24,-2.49,10.6098
0.24,0.9,0.29,2.68,-0.2,0.06,-22.56,-11.72,-16.7,1.18,-0.24,-2.51,10.6797
0.24,0.9,0.29,3.49,-0.85,-0.21,-23.14,-12.6,-15.53,1.18,-0.24,-2.47,10.7536
0.23,0.9,0.29,3.55,-1.46,-0.39,-22.56,-12.3,-15.53,1.18,-0.24,-2.47,10.8271
0.23,0.91,0.28,3.3,-0.26,-0.38,-22.56,-12.01,-16.41,1.19,-0.24,-2.49,10.9007
0.23,0.9,0.28,3.59,-1.14,-0.52,-22.56,-12.01,-16.11,1.19,-0.24,-2.49,10.9747
0.24,0.91,0.28,3.3,-0.97,-0.45,-22.56,-12.3,-15.82,1.19,-0.24,-2.47,11.0442
0.24,0.9,0.29,3.59,-1.78,-0.59,-22.56,-11.72,-15.53,1.18,-0.25,-2.49,11.1179
0.24,0.91,0.28,3.04,-1.29,-0.48,-22.85,-12.6,-15.53,1.19,-0.24,-2.46,11.1917
0.24,0.9,0.29,3.26,-0.92,-0.37,-22.85,-11.43,-16.41,1.18,-0.24,-2.52,11.2653
0.24,0.91,0.28,3.22,-1.52,-0.63,-22.85,-12.01,-16.41,1.18,-0.25,-2.49,11.3391
0.24,0.91,0.27,3.17,-1.27,-0.14,-23.44,-12.01,-16.11,1.19,-0.25,-2.49,11.4089
0.24,0.9,0.29,3.22,-0.5,-0.22,-22.85,-12.01,-15.82,1.18,-0.25,-2.49,11.4827
0.24,0.9,0.27,3.21,-0.5,-0.66,-22.56,-11.72,-15.82,1.19,-0.25,-2.49,11.5565
0.23,0.91,0.28,3.19,-0.63,-0.61,-22.27,-11.43,-16.11,1.19,-0.24,-2.5,11.63
0.24,0.91,0.28,2.99,-0.13,-0.1,-22.27,-12.01,-15.82,1.19,-0.25,-2.48,11.7039
0.25,0.91,0.28,3.36,-1.23,-0.52,-23.14,-12.6,-16.7,1.18,-0.25,-2.48,11.7773
0.24,0.9,0.27,3.23,-2.32,-0.01,-22.85,-12.3,-16.7,1.19,-0.25,-2.48,11.8471
0.23,0.9,0.28,3.44,-1.96,-0.11,-23.14,-12.01,-16.11,1.18,-0.24,-2.49,11.9209
0.24,0.91,0.28,2.35,-1.08,0.0,-22.85,-12.6,-16.11,1.19,-0.25,-2.47,11.9945
0.26,0.91,0.26,1.56,-2.55,-1.5,-22.85,-12.3,-15.82,1.19,-0.26,-2.46,12.0683
0.25,0.9,0.29,2.27,-2.73,-2.06,-22.27,-12.6,-16.11,1.17,-0.26,-2.46,12.142
0.24,0.9,0.26,1.56,-3.05,-2.3,-22.85,-12.3,-15.53,1.2,-0.25,-2.46,12.2118
0.23,0.91,0.28,2.3,-2.98,-1.46,-22.56,-12.3,-15.53,1.19,-0.23,-2.47,12.2857
0.23,0.91,0.26,1.23,1.04,0.41,-22.85,-12.3,-16.41,1.2,-0.24,-2.48,12.359
0.24,0.93,0.24,1.04,-11.77,-2.84,-23.14,-12.6,-16.11,1.22,-0.24,-2.46,12.4328
0.2,0.95,0.19,2.55,-5.6,4.1,-22.56,-13.48,-16.11,1.29,-0.2,-2.42,12.5065
0.2,0.99,0.19,2.3,6.51,12.47,-22.56,-12.89,-15.23,1.3,-0.2,-2.43,12.5802
0.3,0.99,0.18,48.4,-4.23,8.01,-22.27,-12.6,-16.11,1.23,-0.29,-2.41,12.65
0.33,1.27,0.16,18.59,14.51,-3.14,-22.27,-12.6,-16.11,1.29,-0.25,-2.41,12.7238
0.35,1.22,0.09,37.28,-19.25,-10.17,-21.97,-12.3,-16.41,1.28,-0.28,-2.41,12.7975
0.26,1.23,0.27,34.9,-40.05,-34.46,-20.51,-11.72,-15.82,1.28,-0.2,-2.47,12.8714
0.19,1.35,0.23,55.29,-31.69,-32.17,-21.39,-11.72,-15.53,1.35,-0.14,-2.49,12.9448
0.18,1.14,0.27,81.83,36.17,-19.82,-21.09,-11.13,-16.41,1.29,-0.16,-2.54,13.0185
0.17,0.93,0.24,95.86,57.44,-10.77,-21.97,-11.43,-18.16,1.27,-0.17,-2.56,13.0922
0.11,0.93,0.02,100.69,58.37,-10.79,-22.27,-10.25,-19.92,1.45,-0.12,-2.61,13.1659
0.18,0.41,-0.14,75.02,56.55,-1.58,-21.97,-10.84,-21.09,1.07,-0.39,-2.5,13.2357
0.28,0.0,-0.14,19.21,9.93,-8.58,-22.56,-10.25,-21.97,0.01,-1.11,-2.32,13.3095
0.27,0.32,-0.21,-23.41,-31.84,-13.62,-22.85,-10.55,-21.39,0.76,-0.61,-2.44,13.3831
0.09,0.73,-0.25,-34.26,-46.26,-2.08,-21.68,-10.84,-21.39,1.22,-0.11,-2.68,13.4569
0.01,1.07,-0.12,-38.48,-46.03,20.94,-20.8,-10.84,-20.21,1.46,-0.01,-2.68,13.5306
0.04,1.3,-0.1,-86.81,19.39,53.23,-20.51,-11.43,-20.21,1.49,-0.03,-2.63,13.6044
0.27,1.16,-0.16,-10.02,147.37,80.69,-20.21,-12.01,-21.97,1.31,-0.23,-2.52,13.6741
0.66,1.09,-0.34,-22.62,46.46,33.25,-19.04,-11.43,-22.85,0.98,-0.52,-2.38,13.7478
0.19,1.58,-0.23,-66.02,-80.7,-47.94,-19.04,-11.43,-21.09,1.38,-0.12,-2.59,13.8215
-0.03,0.87,0.53,-46.32,40.54,4.35,-18.75,-12.01,-19.92,1.02,0.03,-2.74,13.8951
0.16,0.98,0.14,-29.27,18.1,-5.4,-18.16,-11.13,-19.63,1.36,-0.16,-2.55,13.9688
0.29,0.97,0.07,-21.89,-44.07,-30.76,-17.58,-11.43,-19.34,1.27,-0.29,-2.44,14.0426
0.05,1.01,0.12,-17.23,-26.98,-19.14,-16.99,-11.72,-18.75,1.44,-0.05,-2.58,14.1163
0.0,0.89,0.32,-11.67,3.89,-6.37,-16.99,-10.84,-19.04,1.23,-0.0,-2.71,14.1861
0.16,0.94,0.3,-13.18,-15.68,-7.17,-17.58,-11.43,-18.46,1.22,-0.16,-2.56,14.2598
0.16,0.97,0.18,-6.83,2.4,0.01,-16.41,-11.13,-19.04,1.33,-0.16,-2.54,14.3334
0.12,0.98,0.14,-3.21,-2.09,0.81,-16.99,-10.84,-18.75,1.38,-0.12,-2.57,14.4071
0.16,0.95,0.21,-3.81,0.82,1.14,-16.7,-11.72,-18.75,1.3,-0.16,-2.52,14.4769
0.21,0.91,0.29,-3.49,-1.79,0.65,-16.41,-11.43,-18.46,1.19,-0.22,-2.5,14.5507
0.11,0.96,0.27,-2.27,-3.4,0.34,-16.41,-11.72,-18.16,1.28,-0.11,-2.56,14.6244
0.16,0.94,0.23,0.16,-13.85,-2.15,-16.41,-11.72,-18.46,1.28,-0.16,-2.52,14.698
0.17,0.94,0.2,3.01,-8.07,0.97,-16.11,-11.72,-18.46,1.3,-0.17,-2.51,14.7718
0.13,0.94,0.23,5.18,9.15,8.35,-16.7,-11.72,-19.34,1.3,-0.13,-2.56,14.8414
