Ax,Ay,Az,Gx,Gy,Gz,Mx,My,MZ,Roll,Pitch,Yaw,Time
0.49,0.57,-0.99,49.29,114.81,105.16,-19.92,-21.68,-32.52,0.48,-0.41,-2.27,0.0006
0.53,0.71,-0.79,2.87,-61.42,-54.8,-19.63,-20.51,-33.69,0.65,-0.46,-2.28,0.0008
0.55,0.5,-0.99,15.32,44.42,14.96,-20.51,-21.68,-32.23,0.42,-0.46,-2.24,0.001
0.56,0.7,-0.83,17.78,-10.6,-3.37,-19.04,-20.51,-33.4,0.61,-0.47,-2.25,0.0013
0.55,0.58,-1.01,-14.91,-3.62,-12.15,-20.8,-20.21,-32.23,0.47,-0.44,-2.29,0.0015
0.59,0.68,-0.89,26.83,8.7,20.94,-19.04,-20.51,-33.69,0.56,-0.49,-2.24,0.0017
0.52,0.62,-0.97,-12.61,-8.2,-23.51,-19.63,-20.8,-33.11,0.51,-0.42,-2.28,0.0019
0.62,0.62,-0.92,9.33,8.22,10.22,-19.63,-20.8,-33.4,0.51,-0.51,-2.22,0.0021
0.51,0.62,-0.96,12.57,-4.36,0.17,-19.34,-20.51,-32.81,0.52,-0.42,-2.28,0.0023
0.59,0.62,-0.92,-9.21,-0.05,-5.84,-19.92,-20.21,-33.4,0.51,-0.49,-2.25,0.0025
0.56,0.59,-0.97,17.23,-3.75,7.15,-19.34,-19.92,-32.52,0.49,-0.46,-2.26,0.0027
0.56,0.63,-0.92,-3.27,4.17,-3.3,-19.04,-21.09,-32.52,0.53,-0.46,-2.24,0.0029
0.58,0.59,-0.95,4.26,-5.9,-4.71,-20.51,-19.92,-33.98,0.49,-0.47,-2.27,0.0032
0.57,0.61,-0.94,2.98,1.75,9.19,-19.92,-20.51,-33.69,0.51,-0.47,-2.26,0.0034
0.56,0.61,-0.95,3.65,-5.93,-5.87,-19.92,-20.51,-33.11,0.51,-0.46,-2.26,0.0036
0.57,0.6,-0.96,2.78,2.45,3.1,-18.46,-20.8,-33.69,0.49,-0.47,-2.23,0.0038
0.57,0.61,-0.94,4.78,-0.9,-1.27,-19.04,-20.8,-33.11,0.5,-0.47,-2.24,0.004
0.57,0.6,-0.96,4.24,0.8,0.64,-18.75,-20.51,-32.81,0.49,-0.47,-2.24,0.0042
0.58,0.6,-0.94,1.34,-1.19,-1.54,-19.63,-21.39,-33.4,0.5,-0.48,-2.23,0.0044
0.56,0.6,-0.96,6.03,-1.64,1.09,-19.34,-20.8,-33.4,0.49,-0.46,-2.25,0.0046
0.58,0.6,-0.96,1.31,0.34,-1.08,-18.46,-20.8,-33.11,0.49,-0.47,-2.22,0.0048
0.58,0.59,-0.96,4.8,-0.11,-0.59,-18.75,-20.51,-33.11,0.49,-0.47,-2.23,0.005
0.58,0.6,-0.95,3.04,0.56,0.46,-19.34,-20.51,-33.4,0.49,-0.48,-2.24,0.0052
0.58,0.6,-0.96,3.01,-0.98,-1.9,-19.04,-19.92,-33.4,0.49,-0.47,-2.25,0.0054
0.58,0.59,-0.96,2.98,-0.16,0.63,-19.04,-20.51,-33.11,0.49,-0.48,-2.24,0.0056
0.57,0.59,-0.95,1.75,-1.45,-1.96,-18.46,-20.21,-32.81,0.49,-0.47,-2.23,0.0058
0.58,0.59,-0.95,6.29,3.91,-1.72,-19.63,-20.8,-33.11,0.48,-0.48,-2.24,0.006
0.58,0.58,-0.95,0.8,-5.53,-2.82,-19.92,-20.21,-32.81,0.48,-0.48,-2.25,0.0062
0.56,0.59,-0.95,5.04,1.86,2.23,-18.75,-21.09,-33.4,0.49,-0.47,-2.23,0.0064
0.59,0.58,-0.96,-0.33,-2.62,-2.35,-18.75,-20.51,-33.69,0.47,-0.49,-2.22,0.0066
0.56,0.6,-0.95,9.74,2.08,4.67,-19.04,-21.09,-33.4,0.5,-0.46,-2.24,0.0067
0.58,0.59,-0.96,-4.85,-5.7,-9.77,-19.63,-20.8,-33.4,0.48,-0.48,-2.24,0.0069
0.59,0.59,-0.96,11.38,6.09,8.25,-18.75,-20.21,-32.52,0.48,-0.48,-2.23,0.0071
0.56,0.6,-0.95,-0.61,-4.11,-5.96,-19.04,-21.09,-33.4,0.5,-0.46,-2.24,0.0073
0.6,0.58,-0.97,4.44,1.87,1.1,-19.34,-20.51,-33.11,0.47,-0.49,-2.23,0.0075
0.57,0.59,-0.95,6.75,0.53,0.63,-19.92,-21.09,-33.4,0.49,-0.47,-2.24,0.0077
0.58,0.58,-0.95,-1.17,-1.13,-5.1,-19.63,-21.09,-33.11,0.48,-0.48,-2.23,0.0079
0.58,0.58,-0.96,7.41,1.5,1.18,-18.46,-20.21,-33.11,0.48,-0.48,-2.23,0.008
0.57,0.59,-0.95,0.55,-2.18,-2.13,-19.63,-20.51,-33.4,0.49,-0.47,-2.25,0.0082
0.59,0.58,-0.96,2.97,-2.06,1.68,-18.16,-20.51,-32.81,0.48,-0.48,-2.21,0.0084
0.58,0.59,-0.96,3.81,0.55,0.96,-19.04,-20.51,-33.11,0.48,-0.48,-2.24,0.0086
0.59,0.59,-0.96,2.95,-1.27,-1.2,-18.75,-19.92,-33.11,0.48,-0.48,-2.24,0.0088
0.59,0.58,-0.96,2.86,-0.78,1.03,-18.16,-21.09,-32.81,0.48,-0.48,-2.21,0.009
0.58,0.59,-0.96,3.68,-0.47,-0.66,-19.04,-20.21,-33.98,0.48,-0.48,-2.24,0.0091
0.59,0.58,-0.96,2.96,-1.5,-0.34,-19.04,-20.51,-33.69,0.47,-0.48,-2.23,0.0093
0.59,0.58,-0.96,2.42,-0.02,-1.24,-18.46,-20.21,-33.4,0.48,-0.48,-2.23,0.0095
0.58,0.58,-0.96,4.03,-0.55,-1.2,-18.46,-20.21,-33.11,0.48,-0.48,-2.23,0.0097
0.59,0.58,-0.96,3.2,-0.3,0.19,-19.04,-20.21,-32.81,0.48,-0.48,-2.24,0.0099
0.58,0.58,-0.96,1.95,-2.27,-0.18,-19.92,-20.51,-33.4,0.48,-0.48,-2.25,0.0101
0.58,0.58,-0.96,3.29,-1.11,0.28,-18.75,-20.51,-33.4,0.48,-0.48,-2.23,0.0103
0.58,0.58,-0.95,2.3,-0.86,-0.76,-18.75,-19.92,-32.52,0.48,-0.48,-2.24,0.0104
0.59,0.58,-0.97,3.88,-0.69,0.65,-19.04,-20.8,-33.4,0.47,-0.48,-2.23,0.0106
0.58,0.58,-0.96,2.46,-1.47,-0.24,-18.16,-19.92,-33.11,0.48,-0.48,-2.23,0.0108
0.59,0.58,-0.97,2.53,1.43,0.34,-19.34,-21.39,-33.4,0.47,-0.48,-2.22,0.011
0.58,0.58,-0.95,3.45,-2.22,-2.14,-18.46,-20.21,-33.11,0.48,-0.48,-2.23,0.0112
0.59,0.56,-0.96,-0.44,-2.08,-2.24,-19.04,-20.21,-33.11,0.46,-0.49,-2.23,0.0114
0.59,0.59,-0.96,6.29,-1.26,5.8,-19.04,-20.51,-33.4,0.48,-0.48,-2.23,0.0116
0.56,0.59,-0.98,4.88,-4.67,-0.93,-18.46,-20.51,-33.11,0.48,-0.45,-2.24,0.0118
0.58,0.58,-0.97,1.87,-3.85,-5.27,-19.04,-20.51,-33.4,0.48,-0.47,-2.24,0.012
0.58,0.58,-1.01,23.95,14.47,-3.74,-19.04,-20.51,-33.4,0.46,-0.46,-2.24,0.0121
0.55,0.56,-0.96,-22.56,-4.22,-27.01,-19.04,-19.92,-33.4,0.47,-0.46,-2.25,0.0123
0.63,0.54,-1.0,34.48,12.43,23.33,-18.75,-19.92,-33.69,0.43,-0.5,-2.22,0.0125
0.48,0.62,-0.95,-1.66,-2.53,-6.37,-18.16,-19.92,-33.4,0.53,-0.4,-2.29,0.0127
0.62,0.53,-0.98,-14.02,-13.43,-21.78,-19.92,-18.75,-33.11,0.43,-0.51,-2.25,0.0129
0.54,0.61,-1.04,46.73,18.42,37.09,-17.58,-20.8,-33.11,0.48,-0.42,-2.24,0.0131
0.53,0.62,-0.93,-56.34,-14.12,-28.75,-19.04,-20.21,-33.69,0.52,-0.44,-2.27,0.0133
0.62,0.48,-1.0,49.87,6.62,14.98,-19.34,-20.51,-33.98,0.39,-0.51,-2.21,0.0135
0.51,0.59,-0.93,-15.98,13.98,-9.35,-18.16,-21.68,-33.98,0.51,-0.43,-2.23,0.0137
0.69,0.5,-0.99,4.49,-15.59,-23.32,-19.34,-20.51,-33.69,0.4,-0.56,-2.18,0.0139
0.58,0.56,-1.0,25.38,23.59,32.04,-17.87,-22.27,-33.98,0.45,-0.47,-2.19,0.014
0.57,0.58,-0.94,-20.94,-19.79,-32.73,-19.04,-21.68,-34.28,0.49,-0.48,-2.22,0.0142
0.63,0.5,-1.01,23.9,9.44,21.09,-18.75,-20.8,-33.69,0.4,-0.51,-2.19,0.0144
0.54,0.59,-0.94,-6.48,-2.21,-8.48,-18.75,-21.39,-34.28,0.5,-0.45,-2.23,0.0146
0.63,0.52,-1.0,2.34,-3.85,-6.74,-19.63,-20.8,-33.69,0.41,-0.51,-2.21,0.0147
0.58,0.57,-0.98,12.15,9.83,14.13,-18.46,-21.39,-33.98,0.46,-0.47,-2.21,0.0149
0.59,0.55,-0.97,-3.6,-11.61,-13.82,-18.75,-21.68,-33.98,0.45,-0.48,-2.2,0.0151
0.61,0.54,-1.0,6.26,5.22,5.52,-19.34,-21.68,-33.69,0.43,-0.49,-2.2,0.0153
0.6,0.56,-0.97,5.91,-0.78,2.08,-18.75,-20.8,-33.98,0.46,-0.49,-2.21,0.0154
0.58,0.53,-0.99,-0.89,-4.29,-6.36,-18.75,-21.09,-33.11,0.43,-0.48,-2.21,0.0156
0.61,0.53,-0.97,8.45,2.88,3.36,-17.87,-21.09,-33.4,0.43,-0.51,-2.18,0.0158
0.57,0.54,-0.98,3.0,-1.93,-1.13,-19.34,-21.09,-34.57,0.44,-0.47,-2.23,0.0159
0.61,0.54,-0.97,-0.03,-2.01,-4.54,-19.04,-21.39,-33.98,0.44,-0.5,-2.2,0.0161
0.6,0.53,-0.99,8.45,-1.0,5.1,-18.75,-21.68,-33.98,0.43,-0.49,-2.2,0.0163
0.58,0.55,-0.98,-1.68,-1.91,-4.2,-18.46,-21.09,-33.4,0.45,-0.48,-2.21,0.0164
0.61,0.53,-0.99,5.17,0.13,-0.36,-17.58,-21.68,-34.28,0.43,-0.5,-2.17,0.0166
0.58,0.53,-0.98,2.31,1.09,-1.2,-18.75,-20.8,-33.98,0.44,-0.48,-2.22,0.0168
0.6,0.53,-0.98,3.44,-2.15,-2.0,-18.46,-21.68,-33.69,0.43,-0.49,-2.19,0.0169
0.59,0.53,-0.98,4.48,0.54,1.2,-19.04,-21.39,-34.28,0.43,-0.48,-2.21,0.0171
0.6,0.54,-0.98,1.7,-0.72,-2.22,-18.16,-21.39,-33.4,0.44,-0.49,-2.19,0.0173
0.6,0.53,-0.99,4.26,-0.05,-0.88,-19.34,-20.8,-34.57,0.43,-0.49,-2.22,0.0175
0.59,0.54,-0.98,-0.52,-1.69,-3.44,-18.16,-21.39,-34.57,0.44,-0.49,-2.19,0.0177
0.6,0.53,-0.98,8.0,-3.68,-1.01,-19.04,-21.09,-34.28,0.43,-0.49,-2.21,0.0179
0.57,0.53,-0.98,3.06,2.5,-1.69,-18.46,-21.97,-33.98,0.44,-0.47,-2.2,0.018
0.63,0.51,-0.97,0.55,-4.81,-1.56,-19.34,-21.09,-33.98,0.42,-0.52,-2.2,0.0182
0.56,0.55,-0.98,14.25,4.04,9.0,-18.75,-21.68,-33.98,0.45,-0.46,-2.21,0.0184
0.6,0.52,-0.98,-4.04,-4.49,-10.6,-19.04,-21.09,-34.28,0.43,-0.49,-2.21,0.0185
0.62,0.5,-0.98,-5.5,-3.59,2.08,-18.75,-20.8,-33.69,0.41,-0.51,-2.19,0.0187
0.56,0.56,-0.98,17.28,2.7,10.09,-19.04,-21.97,-34.57,0.46,-0.46,-2.22,0.0189
0.6,0.53,-0.99,-15.36,-10.07,-14.02,-19.34,-21.39,-34.28,0.43,-0.49,-2.21,0.019
0.6,0.51,-0.99,14.69,1.76,9.0,-19.04,-21.97,-34.28,0.42,-0.5,-2.19,0.0192
0.56,0.54,-0.96,-0.21,-3.07,2.38,-18.16,-20.21,-33.4,0.45,-0.47,-2.22,0.0194
0.61,0.51,-0.98,-2.59,-6.53,-9.57,-19.04,-20.8,-33.98,0.42,-0.51,-2.2,0.0196
0.6,0.52,-0.98,10.45,12.43,4.28,-19.04,-21.09,-34.28,0.42,-0.5,-2.2,0.0197
0.56,0.56,-0.99,19.25,-7.72,-3.36,-18.16,-21.39,-34.28,0.46,-0.46,-2.21,0.0199
0.63,0.52,-1.01,-26.42,6.23,-2.29,-18.46,-21.09,-33.4,0.41,-0.5,-2.19,0.0201
0.59,0.57,-0.97,27.96,2.27,5.27,-17.87,-21.68,-33.98,0.47,-0.48,-2.19,0.0202
0.62,0.5,-0.99,-22.44,-8.17,-7.74,-18.46,-20.8,-33.4,0.41,-0.51,-2.19,0.0204
0.56,0.55,-0.99,17.01,-4.1,16.04,-18.75,-21.09,-34.28,0.45,-0.46,-2.23,0.0206
0.62,0.53,-0.96,-22.42,-3.75,-12.97,-18.75,-21.68,-33.98,0.43,-0.51,-2.18,0.0207
0.58,0.51,-0.94,-2.37,-23.64,23.42,-18.75,-20.8,-33.98,0.43,-0.5,-2.2,0.0209
0.51,0.54,-0.95,0.69,7.79,3.23,-18.16,-20.8,-33.98,0.46,-0.44,-2.24,0.0211
0.61,0.55,-0.96,5.13,-8.09,-9.48,-18.46,-20.51,-33.4,0.45,-0.5,-2.21,0.0212
0.59,0.53,-1.0,0.83,4.97,2.51,-18.16,-20.21,-33.11,0.43,-0.48,-2.21,0.0214
0.61,0.57,-0.95,7.74,-3.97,-3.61,-18.75,-21.09,-34.57,0.47,-0.5,-2.2,0.0216
0.6,0.53,-1.02,2.69,-0.09,5.52,-19.04,-21.68,-33.98,0.42,-0.48,-2.2,0.0217
0.59,0.57,-0.94,-1.13,-1.74,-1.74,-18.75,-20.51,-33.11,0.48,-0.49,-2.22,0.0219
0.6,0.52,-1.01,6.74,-1.0,-1.53,-18.75,-21.09,-33.69,0.41,-0.49,-2.2,0.0221
0.61,0.57,-0.95,2.38,1.43,3.4,-18.46,-20.8,-33.69,0.47,-0.5,-2.21,0.0222
0.61,0.56,-0.98,-15.54,-14.61,-10.29,-17.87,-20.21,-33.98,0.45,-0.49,-2.21,0.0224
0.59,0.55,-1.05,32.4,15.6,20.19,-17.87,-21.09,-33.69,0.43,-0.46,-2.2,0.0225
0.55,0.6,-0.91,-27.13,-21.85,-24.57,-18.75,-20.51,-33.69,0.51,-0.46,-2.24,0.0227
0.63,0.48,-1.05,23.38,7.15,22.93,-19.04,-20.21,-33.69,0.37,-0.5,-2.2,0.0229
0.52,0.62,-0.9,-6.84,-0.26,-2.97,-17.87,-19.92,-33.69,0.53,-0.45,-2.25,0.023
0.61,0.5,-1.02,0.62,-11.53,-16.89,-18.75,-21.39,-33.11,0.39,-0.49,-2.19,0.0232
0.59,0.58,-0.95,17.04,18.25,23.82,-18.16,-20.51,-33.98,0.48,-0.49,-2.21,0.0233
0.54,0.56,-0.98,-10.68,-18.67,-24.33,-18.46,-20.51,-33.11,0.47,-0.45,-2.24,0.0235
0.66,0.52,-1.0,6.26,18.84,11.23,-17.87,-19.92,-32.81,0.41,-0.53,-2.18,0.0236
0.5,0.62,-0.98,14.81,3.49,0.92,-18.16,-21.39,-33.4,0.52,-0.41,-2.25,0.0238
0.69,0.53,-1.03,-23.9,-14.46,-22.13,-19.04,-20.51,-33.4,0.4,-0.54,-2.19,0.024
0.6,0.59,-0.99,21.38,15.75,29.41,-18.16,-20.8,-33.4,0.47,-0.48,-2.21,0.0241
0.55,0.58,-0.98,-8.51,-12.96,-17.76,-17.29,-20.8,-33.4,0.48,-0.45,-2.21,0.0243
0.65,0.52,-0.99,-1.99,0.57,-1.14,-18.16,-21.09,-33.4,0.41,-0.53,-2.17,0.0244
0.57,0.56,-0.97,15.25,4.86,10.18,-18.75,-21.09,-33.69,0.46,-0.47,-2.22,0.0246
0.59,0.55,-0.98,-10.31,-6.93,-11.94,-19.04,-20.51,-33.69,0.45,-0.48,-2.23,0.0248
0.61,0.54,-0.99,10.25,4.65,5.2,-18.46,-20.51,-33.98,0.44,-0.5,-2.2,0.0249
0.58,0.56,-0.98,1.9,-0.56,-3.65,-18.46,-20.51,-33.11,0.45,-0.48,-2.22,0.0251
0.6,0.54,-0.98,1.4,-0.07,-1.89,-17.87,-20.21,-32.52,0.44,-0.49,-2.2,0.0252
0.59,0.55,-0.98,6.03,0.06,0.25,-18.16,-21.09,-33.4,0.45,-0.48,-2.2,0.0254
0.59,0.54,-0.97,1.01,-0.94,-2.22,-18.46,-20.8,-33.11,0.45,-0.49,-2.21,0.0255
0.59,0.54,-0.99,4.72,-0.43,-0.05,-19.04,-21.09,-34.28,0.44,-0.49,-2.21,0.0257
0.6,0.55,-0.98,1.87,0.66,-0.37,-18.75,-20.51,-33.4,0.45,-0.49,-2.22,0.0259
0.59,0.55,-0.98,5.33,-2.56,-1.81,-18.46,-19.92,-33.69,0.45,-0.49,-2.22,0.026
0.61,0.54,-0.98,-1.05,-0.61,0.21,-18.46,-20.51,-33.69,0.44,-0.5,-2.2,0.0262
0.57,0.57,-0.97,6.0,-1.28,1.98,-18.16,-21.09,-33.69,0.47,-0.47,-2.21,0.0263
0.61,0.55,-0.99,-4.26,-0.35,-3.15,-19.04,-20.51,-33.69,0.44,-0.5,-2.22,0.0265
0.59,0.54,-0.98,9.62,-0.79,2.37,-18.46,-21.09,-33.98,0.44,-0.49,-2.2,0.0267
0.58,0.55,-0.98,-2.37,-1.71,-2.15,-18.46,-20.8,-33.4,0.45,-0.48,-2.21,0.0268
0.6,0.54,-0.98,5.72,-0.5,-1.85,-18.46,-20.51,-33.4,0.44,-0.49,-2.21,0.027
0.6,0.55,-0.98,1.98,0.69,2.32,-18.16,-20.8,-33.4,0.44,-0.49,-2.2,0.0271
0.57,0.55,-0.97,6.09,-5.34,-5.84,-17.87,-21.09,-33.69,0.45,-0.47,-2.2,0.0273
0.62,0.54,-0.99,1.07,6.0,3.98,-18.16,-21.09,-33.4,0.43,-0.5,-2.19,0.0274
0.58,0.56,-0.97,5.52,-3.38,-1.33,-19.04,-20.8,-33.4,0.46,-0.48,-2.23,0.0276
0.6,0.54,-0.98,-1.89,-2.4,-2.46,-18.75,-20.51,-33.11,0.44,-0.49,-2.21,0.0278
0.6,0.55,-0.98,5.63,-0.5,2.62,-18.16,-20.51,-33.69,0.44,-0.49,-2.21,0.0279
0.59,0.55,-0.98,0.02,-1.72,-1.37,-18.16,-20.51,-33.4,0.45,-0.48,-2.21,0.0281
0.61,0.54,-0.98,2.81,-0.6,1.3,-18.46,-20.51,-33.98,0.44,-0.5,-2.21,0.0282
0.59,0.54,-0.98,3.33,-1.49,0.32,-18.46,-20.21,-33.11,0.44,-0.48,-2.22,0.0284
0.59,0.54,-0.98,1.33,-1.85,-1.47,-18.46,-20.8,-33.69,0.44,-0.49,-2.21,0.0285
0.6,0.54,-0.98,1.98,-0.6,1.47,-18.16,-20.21,-33.4,0.44,-0.49,-2.21,0.0287
0.59,0.55,-0.98,2.66,-2.85,0.2,-18.46,-21.09,-33.98,0.45,-0.48,-2.21,0.0288
0.6,0.54,-0.98,2.27,-1.4,-0.95,-18.46,-20.8,-33.4,0.44,-0.49,-2.21,0.029
0.6,0.54,-0.98,4.47,0.66,3.2,-18.75,-20.51,-33.98,0.44,-0.49,-2.21,0.0292
0.58,0.55,-0.97,2.4,-4.45,-3.71,-17.87,-20.8,-33.98,0.45,-0.48,-2.2,0.0293
0.59,0.53,-0.98,1.93,-0.92,0.48,-18.16,-20.51,-33.4,0.43,-0.49,-2.2,0.0295
0.6,0.55,-0.97,3.62,-0.48,1.39,-19.04,-21.09,-33.69,0.45,-0.5,-2.21,0.0296
0.59,0.55,-0.98,3.1,-1.77,-0.8,-17.58,-20.51,-32.81,0.45,-0.48,-2.2,0.0298
0.61,0.54,-0.98,2.11,0.82,-1.71,-17.29,-20.8,-33.69,0.44,-0.5,-2.18,0.0299
0.59,0.54,-0.98,6.06,0.51,0.22,-18.46,-21.68,-33.69,0.44,-0.49,-2.19,0.0301
0.59,0.55,-0.98,0.68,-0.48,-2.79,-18.16,-20.8,-33.11,0.45,-0.49,-2.2,0.0302
0.61,0.54,-0.98,4.24,0.63,-0.54,-18.46,-21.09,-33.4,0.44,-0.5,-2.2,0.0304
0.59,0.55,-0.98,2.36,-0.29,-0.6,-18.75,-20.8,-33.4,0.45,-0.49,-2.21,0.0305
0.6,0.54,-0.98,2.6,-1.18,-1.33,-18.46,-20.8,-33.98,0.44,-0.49,-2.2,0.0307
0.6,0.54,-0.98,4.17,0.24,0.08,-17.87,-20.8,-33.69,0.44,-0.49,-2.2,0.0308
0.59,0.54,-0.98,1.95,-1.39,-1.45,-18.75,-21.39,-33.69,0.44,-0.49,-2.2,0.0309
0.6,0.54,-0.99,3.97,-0.36,0.33,-18.75,-20.8,-32.81,0.44,-0.49,-2.21,0.0311
0.6,0.55,-0.98,1.72,-0.43,-0.45,-18.16,-21.09,-33.4,0.44,-0.49,-2.2,0.0312
0.6,0.54,-0.98,3.1,-1.95,-0.67,-18.46,-21.09,-33.98,0.44,-0.49,-2.2,0.0314
0.6,0.54,-0.98,3.14,0.15,0.18,-17.87,-21.09,-33.69,0.44,-0.49,-2.19,0.0315
0.6,0.54,-0.98,2.86,-0.95,-1.59,-18.75,-20.51,-33.11,0.44,-0.49,-2.21,0.0317
0.6,0.55,-0.98,2.72,-0.07,-0.05,-18.46,-20.51,-33.69,0.44,-0.49,-2.21,0.0318
0.6,0.54,-0.97,2.88,-1.89,-0.66,-18.16,-20.21,-33.69,0.44,-0.49,-2.21,0.032
0.6,0.54,-0.98,3.85,0.19,-1.1,-18.46,-21.09,-33.69,0.44,-0.49,-2.2,0.0321
0.6,0.55,-0.98,3.13,0.48,-1.03,-18.46,-20.51,-33.69,0.44,-0.49,-2.21,0.0323
0.6,0.54,-0.98,2.82,-1.62,-0.33,-18.16,-20.51,-33.11,0.44,-0.49,-2.21,0.0324
0.6,0.54,-0.98,2.24,-1.45,-0.71,-18.46,-21.39,-33.11,0.44,-0.49,-2.19,0.0325
0.6,0.54,-0.98,2.14,-1.27,0.6,-18.16,-20.8,-32.81,0.44,-0.49,-2.2,0.0327
0.6,0.54,-0.98,2.72,-2.78,0.31,-18.16,-21.09,-33.69,0.44,-0.49,-2.2,0.0328
0.6,0.54,-0.98,2.62,0.01,1.39,-18.46,-21.09,-33.69,0.44,-0.49,-2.2,0.033
0.6,0.54,-0.98,2.72,-1.34,-2.15,-18.16,-21.09,-33.4,0.44,-0.49,-2.2,0.0331
0.6,0.54,-0.98,3.47,0.17,-0.31,-18.46,-20.51,-33.4,0.44,-0.49,-2.21,0.0333
0.6,0.54,-0.98,2.44,-1.18,0.0,-17.87,-21.09,-33.69,0.44,-0.49,-2.19,0.0334
0.59,0.54,-0.98,2.19,-1.1,-0.55,-18.46,-21.09,-33.98,0.44,-0.49,-2.2,0.0336
0.6,0.54,-0.98,2.6,-1.72,0.12,-17.58,-20.51,-33.4,0.44,-0.49,-2.2,0.0337
0.6,0.54,-0.98,2.85,-1.76,-0.14,-18.16,-20.51,-33.11,0.44,-0.49,-2.21,0.0338
0.6,0.54,-0.98,2.27,-0.89,0.34,-19.04,-21.09,-33.4,0.44,-0.49,-2.21,0.034
0.6,0.54,-0.98,3.47,-0.44,-1.82,-17.87,-20.8,-33.69,0.44,-0.49,-2.19,0.0341
0.6,0.54,-0.98,2.13,0.66,-0.92,-18.16,-21.09,-32.81,0.44,-0.49,-2.19,0.0343
0.6,0.54,-0.98,2.88,-1.08,0.45,-18.75,-20.51,-33.69,0.44,-0.49,-2.22,0.0344
0.6,0.54,-0.98,1.53,-2.14,-1.11,-18.16,-20.8,-33.98,0.44,-0.49,-2.2,0.0346
0.6,0.53,-0.98,3.72,-1.0,1.65,-18.46,-20.8,-33.4,0.44,-0.49,-2.2,0.0347
0.6,0.55,-0.97,1.88,-3.54,-7.02,-18.16,-21.09,-33.98,0.45,-0.49,-2.2,0.0349
0.62,0.54,-1.0,5.39,-3.25,8.83,-18.46,-21.09,-33.69,0.43,-0.5,-2.2,0.0351
0.58,0.59,-0.98,-4.71,-4.33,-4.43,-18.46,-20.21,-33.4,0.47,-0.47,-2.23,0.0352
0.64,0.55,-0.98,7.42,0.58,-0.63,-18.75,-21.39,-33.69,0.44,-0.52,-2.19,0.0354
0.57,0.55,-0.96,-2.73,-4.08,-9.33,-18.46,-21.09,-33.69,0.46,-0.48,-2.21,0.0355
0.62,0.54,-0.99,14.18,7.13,10.89,-17.87,-21.09,-33.4,0.43,-0.5,-2.18,0.0357
0.57,0.56,-0.96,-6.9,-5.2,-10.89,-18.16,-20.51,-33.4,0.46,-0.47,-2.22,0.0358
0.64,0.52,-0.98,8.68,1.2,0.85,-18.75,-21.09,-33.4,0.42,-0.52,-2.18,0.036
0.58,0.55,-0.97,5.63,1.83,3.75,-18.75,-20.8,-33.11,0.45,-0.48,-2.22,0.0361
0.61,0.54,-0.98,-4.4,-4.81,-8.08,-18.16,-21.09,-33.69,0.44,-0.5,-2.19,0.0363
0.61,0.53,-0.98,9.99,3.21,5.2,-18.16,-21.09,-33.4,0.43,-0.5,-2.19,0.0364
0.59,0.55,-0.97,-1.73,-0.76,-4.84,-18.75,-21.09,-33.69,0.45,-0.49,-2.21,0.0366
0.61,0.53,-0.98,4.48,-1.3,-0.81,-18.75,-20.8,-33.11,0.43,-0.5,-2.2,0.0367
0.6,0.55,-0.98,2.72,1.75,2.31,-18.46,-21.09,-33.98,0.45,-0.49,-2.2,0.0368
0.61,0.55,-0.98,1.13,-3.16,-4.08,-18.46,-20.51,-33.69,0.44,-0.5,-2.21,0.037
0.6,0.55,-0.98,4.3,1.12,1.97,-19.34,-21.09,-33.11,0.44,-0.49,-2.21,0.0371
0.6,0.55,-0.97,1.66,-1.51,-2.08,-19.04,-21.09,-33.69,0.45,-0.49,-2.21,0.0373
0.61,0.54,-0.98,2.95,-1.03,-0.38,-18.46,-20.8,-33.4,0.44,-0.5,-2.2,0.0374
0.6,0.54,-0.97,3.49,0.8,-0.84,-18.16,-20.8,-33.4,0.44,-0.5,-2.2,0.0376
0.6,0.54,-0.97,2.35,-0.99,-2.47,-18.75,-20.8,-33.69,0.45,-0.49,-2.21,0.0377
0.61,0.54,-0.98,3.4,0.65,0.14,-17.87,-20.8,-33.11,0.44,-0.5,-2.19,0.0379
0.6,0.55,-0.98,3.04,-1.26,-0.43,-18.16,-20.51,-33.4,0.45,-0.49,-2.2,0.038
0.6,0.54,-0.98,2.26,-0.68,0.05,-18.16,-20.8,-33.11,0.44,-0.49,-2.2,0.0381
0.61,0.54,-0.97,2.3,-2.17,-1.34,-18.16,-20.51,-33.69,0.44,-0.5,-2.2,0.0383
0.59,0.55,-0.98,4.17,0.95,-1.01,-18.46,-21.39,-33.69,0.45,-0.49,-2.2,0.0384
0.61,0.54,-0.98,2.46,-0.04,-0.87,-18.46,-20.21,-33.69,0.43,-0.5,-2.21,0.0386
0.6,0.54,-0.97,4.6,-0.89,-0.04,-18.16,-20.8,-33.11,0.45,-0.49,-2.2,0.0387
0.61,0.54,-0.97,0.16,-1.54,-0.73,-18.16,-20.51,-33.4,0.44,-0.5,-2.2,0.0389
0.61,0.55,-0.98,4.5,-0.63,0.77,-17.87,-20.51,-33.4,0.44,-0.5,-2.2,0.039
0.6,0.54,-0.97,1.38,-0.31,-0.63,-18.46,-21.09,-33.4,0.44,-0.5,-2.2,0.0392
0.61,0.54,-0.98,2.73,-1.08,-1.64,-17.87,-20.8,-33.4,0.44,-0.5,-2.19,0.0393
0.6,0.54,-0.98,4.12,0.98,0.93,-18.75,-20.21,-33.11,0.44,-0.49,-2.22,0.0394
0.61,0.55,-0.98,0.05,-0.2,-2.59,-17.58,-21.09,-33.4,0.44,-0.5,-2.18,0.0396
0.61,0.54,-0.98,4.68,-0.4,0.92,-18.16,-21.39,-33.11,0.44,-0.5,-2.19,0.0397
0.6,0.54,-0.97,1.06,-1.75,-1.11,-19.04,-21.09,-33.11,0.44,-0.5,-2.21,0.0399
0.61,0.54,-0.97,2.4,-1.53,-0.5,-18.75,-20.8,-32.81,0.44,-0.5,-2.21,0.04
0.6,0.54,-0.98,3.43,0.48,-0.05,-17.29,-21.39,-33.11,0.44,-0.5,-2.17,0.0401
0.6,0.54,-0.97,1.12,-1.68,-2.03,-18.16,-20.51,-33.98,0.44,-0.5,-2.2,0.0403
0.6,0.54,-0.99,4.45,-0.18,1.97,-18.46,-20.8,-33.4,0.44,-0.49,-2.2,0.0404
0.61,0.55,-0.98,-0.99,-1.55,-2.3,-18.16,-20.8,-33.4,0.44,-0.5,-2.19,0.0406
0.61,0.54,-0.98,4.52,-1.14,0.25,-17.87,-21.09,-33.4,0.44,-0.5,-2.18,0.0407
0.6,0.55,-0.97,0.92,-0.9,0.13,-17.87,-21.09,-33.4,0.45,-0.49,-2.19,0.0408
0.61,0.55,-0.98,2.35,-1.31,0.53,-17.58,-21.09,-33.4,0.44,-0.5,-2.18,0.041
0.61,0.54,-0.99,2.26,-0.94,-0.31,-18.16,-21.09,-33.4,0.44,-0.5,-2.19,0.0411
0.61,0.54,-0.98,3.62,-0.28,-0.84,-18.46,-21.09,-34.28,0.44,-0.5,-2.2,0.0412
0.61,0.53,-0.97,3.76,0.16,-1.88,-18.16,-21.39,-33.98,0.44,-0.5,-2.18,0.0414
0.61,0.54,-0.98,4.3,0.74,0.98,-19.04,-21.39,-33.4,0.44,-0.5,-2.2,0.0415
0.61,0.54,-0.97,0.58,-0.95,-1.07,-17.87,-19.92,-33.69,0.44,-0.5,-2.21,0.0416
0.6,0.54,-0.98,4.49,-0.19,0.29,-18.16,-21.68,-33.69,0.44,-0.5,-2.18,0.0418
0.6,0.54,-0.97,1.28,-0.77,-1.23,-17.87,-21.39,-33.69,0.44,-0.5,-2.18,0.0419
0.61,0.54,-0.98,3.3,-0.19,-0.47,-17.87,-21.39,-33.4,0.44,-0.5,-2.18,0.042
0.6,0.54,-0.98,3.64,0.41,-0.08,-17.87,-20.8,-33.4,0.44,-0.5,-2.19,0.0422
0.61,0.54,-0.98,1.53,-1.46,-2.2,-18.75,-20.51,-33.11,0.44,-0.5,-2.21,0.0423
0.61,0.54,-0.98,3.88,-0.29,0.21,-19.04,-20.51,-33.69,0.44,-0.5,-2.22,0.0424
0.61,0.54,-0.98,2.02,0.21,-1.21,-18.75,-21.09,-33.98,0.44,-0.5,-2.2,0.0426
0.62,0.54,-0.97,2.88,-1.6,-0.35,-17.87,-21.68,-33.4,0.43,-0.51,-2.17,0.0427
0.6,0.55,-0.98,2.59,-1.24,1.21,-17.58,-21.39,-33.11,0.44,-0.49,-2.18,0.0428
0.61,0.54,-0.97,1.02,-2.0,-0.89,-18.46,-21.09,-33.11,0.44,-0.5,-2.2,0.043
0.61,0.54,-0.97,4.07,-0.68,-0.16,-18.46,-20.8,-33.4,0.44,-0.5,-2.2,0.0431
0.61,0.54,-0.97,2.15,0.3,-1.67,-18.16,-21.09,-33.69,0.44,-0.5,-2.19,0.0433
0.61,0.54,-0.98,3.2,-1.14,-0.81,-18.75,-21.09,-34.28,0.44,-0.5,-2.2,0.0434
0.61,0.54,-0.97,3.56,0.01,0.31,-18.46,-20.51,-33.98,0.44,-0.5,-2.21,0.0435
0.62,0.6,-1.02,-1.65,-8.8,6.77,-18.46,-21.09,-33.11,0.46,-0.48,-2.21,0.0437
0.63,0.55,-0.98,-7.71,-14.27,18.25,-18.75,-20.51,-33.4,0.44,-0.51,-2.2,0.0438
0.5,0.42,-0.84,19.58,8.16,-1.75,-17.58,-21.39,-33.98,0.4,-0.5,-2.17,0.0439
0.64,0.64,-1.02,1.59,-8.77,-5.05,-17.87,-21.39,-33.4,0.49,-0.49,-2.2,0.0441
0.65,0.66,-1.07,-3.0,-10.41,10.96,-18.75,-21.09,-33.4,0.48,-0.48,-2.22,0.0442
0.68,0.7,-1.11,-9.17,-7.06,-1.41,-18.16,-21.09,-33.4,0.49,-0.48,-2.21,0.0444
0.68,0.64,-1.05,-14.08,-2.75,5.31,-18.46,-21.68,-32.81,0.47,-0.5,-2.19,0.0445
0.49,0.52,-0.88,-71.07,-92.96,37.45,-18.46,-21.68,-33.4,0.48,-0.44,-2.23,0.0446
0.52,0.3,-0.77,17.73,0.05,3.97,-17.87,-21.68,-33.98,0.31,-0.56,-2.12,0.0448
0.74,0.72,-1.2,15.05,29.37,-30.17,-18.75,-21.68,-33.69,0.47,-0.49,-2.2,0.0449
0.74,0.8,-1.16,-36.77,-17.52,5.07,-18.46,-21.09,-33.4,0.53,-0.48,-2.22,0.0451
0.62,0.68,-1.05,-45.04,-58.17,18.89,-19.04,-20.8,-33.11,0.51,-0.46,-2.24,0.0452
0.55,0.43,-0.85,-6.1,-14.65,6.24,-18.16,-20.8,-33.98,0.4,-0.52,-2.18,0.0453
0.54,0.41,-0.89,9.91,-0.11,0.56,-18.46,-21.39,-33.11,0.38,-0.51,-2.17,0.0455
0.59,0.48,-0.92,12.6,9.35,-3.07,-19.04,-21.39,-33.4,0.41,-0.52,-2.18,0.0456
0.61,0.54,-0.99,9.0,1.88,-2.78,-19.04,-21.09,-33.98,0.44,-0.49,-2.21,0.0457
0.62,0.57,-0.99,-5.17,-2.63,1.8,-18.16,-21.09,-33.69,0.45,-0.5,-2.19,0.0459
0.64,0.61,-1.04,-16.8,-12.85,4.7,-18.16,-21.09,-33.11,0.47,-0.48,-2.2,0.046
0.56,0.45,-0.9,-3.43,-11.63,8.1,-18.16,-21.39,-33.11,0.4,-0.51,-2.17,0.0462
0.58,0.44,-0.9,19.78,14.79,-5.27,-18.75,-21.09,-33.4,0.39,-0.52,-2.18,0.0463
0.63,0.57,-1.0,11.62,8.14,-7.21,-18.16,-20.51,-33.69,0.45,-0.5,-2.2,0.0464
0.63,0.58,-1.0,-2.95,-3.85,1.17,-18.46,-21.09,-33.4,0.46,-0.5,-2.2,0.0466
0.62,0.56,-0.99,-7.77,-9.06,5.2,-18.16,-21.68,-33.11,0.45,-0.5,-2.18,0.0467
0.58,0.49,-0.93,8.21,1.25,-5.86,-18.75,-21.39,-33.69,0.42,-0.51,-2.19,0.0469
0.62,0.52,-0.96,4.17,2.72,1.27,-18.16,-21.09,-33.11,0.43,-0.52,-2.18,0.047
0.6,0.53,-0.97,5.3,-1.43,-1.53,-18.75,-21.39,-33.4,0.44,-0.5,-2.2,0.0471
0.61,0.54,-0.98,0.9,0.09,0.69,-18.16,-21.09,-33.4,0.44,-0.5,-2.19,0.0473
0.61,0.54,-0.97,3.06,-3.04,-1.4,-18.46,-20.8,-33.11,0.44,-0.5,-2.2,0.0474
0.61,0.53,-0.97,5.0,2.56,0.15,-18.16,-21.39,-34.28,0.43,-0.5,-2.18,0.0475
0.61,0.54,-0.97,2.55,-1.59,-2.06,-18.16,-20.8,-33.4,0.44,-0.51,-2.19,0.0477
0.62,0.54,-0.98,3.73,-0.08,0.24,-18.75,-21.39,-33.11,0.44,-0.5,-2.19,0.0478
0.61,0.54,-0.97,2.22,-0.96,-0.95,-18.16,-21.09,-33.4,0.44,-0.5,-2.19,0.0479
0.61,0.53,-0.98,2.72,-0.97,-1.39,-18.75,-20.8,-33.69,0.43,-0.5,-2.2,0.0481
0.62,0.53,-0.98,3.71,0.62,-0.44,-18.16,-21.39,-33.98,0.43,-0.51,-2.18,0.0482
0.62,0.53,-0.98,3.45,-0.48,-1.37,-18.16,-21.09,-33.69,0.43,-0.51,-2.19,0.0484
0.61,0.54,-0.97,2.72,0.11,0.17,-18.46,-21.09,-33.4,0.44,-0.5,-2.19,0.0485
0.61,0.54,-0.97,2.94,-1.51,-1.24,-18.75,-21.39,-33.98,0.44,-0.5,-2.19,0.0487
0.61,0.54,-0.98,2.74,-0.36,-0.47,-18.46,-21.09,-33.69,0.43,-0.5,-2.19,0.0488
0.61,0.53,-0.98,3.25,-0.71,-0.76,-18.46,-21.09,-33.69,0.43,-0.5,-2.19,0.0489
0.61,0.53,-0.98,2.62,-0.32,-0.84,-17.87,-21.09,-33.4,0.43,-0.5,-2.18,0.0491
0.62,0.54,-0.98,3.09,1.15,-0.39,-18.46,-21.09,-33.11,0.43,-0.5,-2.19,0.0492
0.62,0.53,-0.98,2.33,1.79,0.19,-18.16,-21.09,-32.52,0.43,-0.51,-2.18,0.0493
0.62,0.56,-0.98,-3.84,-1.03,-3.53,-17.58,-21.39,-33.11,0.45,-0.5,-2.18,0.0495
0.61,0.54,-0.98,6.2,-1.53,0.92,-18.46,-21.39,-33.98,0.44,-0.5,-2.19,0.0496
0.62,0.52,-0.99,-5.37,-2.79,-5.1,-18.46,-20.51,-32.52,0.42,-0.51,-2.19,0.0498
0.6,0.57,-0.97,16.46,5.46,9.65,-18.16,-21.09,-33.69,0.46,-0.49,-2.2,0.0499
0.61,0.54,-0.99,-12.21,-8.0,-14.56,-18.75,-21.39,-33.11,0.44,-0.49,-2.2,0.05
0.63,0.54,-0.99,12.08,16.17,16.85,-16.99,-20.51,-33.11,0.43,-0.51,-2.17,0.0502
0.55,0.56,-0.9,-8.22,-19.56,-28.34,-17.87,-21.39,-33.69,0.48,-0.48,-2.2,0.0503
0.69,0.45,-1.04,17.06,10.89,19.84,-19.04,-20.51,-33.11,0.35,-0.55,-2.17,0.0504
0.5,0.59,-0.9,8.55,-2.65,-3.24,-17.58,-21.68,-33.69,0.52,-0.44,-2.22,0.0506
0.67,0.48,-1.03,-11.43,-9.32,-17.78,-19.34,-21.09,-33.69,0.37,-0.53,-2.18,0.0507
0.62,0.57,-0.95,17.14,13.8,25.33,-18.16,-21.97,-33.69,0.46,-0.51,-2.18,0.0509
0.57,0.55,-0.98,-9.06,-15.77,-19.93,-18.16,-21.09,-33.11,0.45,-0.47,-2.21,0.051
0.67,0.52,-0.98,4.45,8.71,9.81,-18.16,-20.51,-33.4,0.41,-0.54,-2.17,0.0513
0.57,0.57,-0.99,15.27,9.86,3.4,-18.75,-21.09,-33.69,0.46,-0.46,-2.23,0.0514
0.66,0.53,-0.94,-17.69,-15.05,-21.67,-18.75,-20.51,-33.4,0.43,-0.55,-2.18,0.0516
0.64,0.46,-1.02,18.53,2.82,14.99,-18.46,-21.09,-33.11,0.37,-0.52,-2.17,0.0517
0.56,0.61,-0.92,-3.3,4.71,10.41,-18.16,-20.51,-32.81,0.52,-0.47,-2.23,0.0518
0.6,0.55,-1.03,-4.14,-9.83,-18.39,-18.75,-20.8,-33.4,0.43,-0.48,-2.22,0.052
0.65,0.55,-0.97,1.85,3.77,9.51,-18.75,-20.51,-33.11,0.44,-0.53,-2.2,0.0521
0.56,0.55,-0.98,8.61,-3.45,2.23,-18.46,-20.8,-32.81,0.45,-0.46,-2.22,0.0522
0.6,0.56,-0.95,0.99,-2.59,-1.95,-18.46,-20.8,-33.69,0.46,-0.49,-2.21,0.0524
0.6,0.53,-0.96,1.68,-12.83,-13.47,-17.58,-20.51,-33.11,0.44,-0.5,-2.19,0.0525
0.62,0.54,-1.0,8.51,13.82,19.69,-18.16,-20.51,-33.98,0.43,-0.5,-2.2,0.0527
0.57,0.58,-0.93,-0.31,-8.78,-13.65,-18.46,-21.09,-33.4,0.48,-0.48,-2.21,0.0528
0.66,0.49,-1.0,-0.34,-2.27,-0.78,-19.04,-20.21,-33.69,0.39,-0.53,-2.19,0.0529
0.59,0.58,-0.96,12.39,6.41,14.43,-17.87,-20.8,-34.28,0.48,-0.48,-2.21,0.0531
0.6,0.54,-0.97,-11.69,-12.6,-21.68,-18.16,-21.39,-32.81,0.44,-0.5,-2.19,0.0532
0.64,0.53,-1.0,25.09,11.1,20.89,-17.58,-20.8,-33.11,0.42,-0.52,-2.17,0.0534
0.55,0.58,-0.94,-15.55,-9.03,-16.18,-18.46,-20.51,-33.69,0.49,-0.46,-2.23,0.0535
0.68,0.5,-0.99,12.3,2.08,6.02,-17.58,-20.51,-32.81,0.4,-0.54,-2.16,0.0536
0.56,0.57,-0.96,5.91,1.23,3.46,-17.87,-20.51,-32.52,0.47,-0.47,-2.22,0.0538
0.64,0.53,-0.98,-6.84,-7.02,-11.93,-18.75,-21.09,-33.4,0.43,-0.52,-2.19,0.0539
0.62,0.54,-0.98,15.01,8.03,14.13,-18.16,-19.92,-32.81,0.44,-0.5,-2.21,0.054
0.59,0.56,-0.95,-8.96,-8.39,-12.3,-18.16,-21.39,-33.11,0.46,-0.49,-2.19,0.0541
0.63,0.53,-0.98,8.91,1.64,5.81,-18.16,-21.09,-32.23,0.43,-0.52,-2.18,0.0543
0.59,0.56,-0.97,0.42,-1.66,0.59,-18.16,-21.09,-33.11,0.46,-0.49,-2.2,0.0544
0.62,0.54,-0.97,0.46,-2.71,-4.37,-17.87,-20.51,-32.81,0.44,-0.51,-2.19,0.0545
0.6,0.54,-0.97,6.22,1.51,3.27,-17.87,-21.09,-33.4,0.44,-0.5,-2.19,0.0547
0.61,0.54,-0.96,1.09,-0.2,-3.46,-17.87,-20.8,-33.11,0.44,-0.51,-2.19,0.0548
0.62,0.54,-0.97,1.72,-0.85,-3.04,-18.16,-21.39,-32.81,0.44,-0.51,-2.18,0.0549
0.6,0.54,-0.98,7.42,2.26,1.39,-18.16,-20.51,-33.11,0.44,-0.49,-2.2,0.055
0.61,0.54,-0.98,-0.81,-1.86,-2.91,-18.75,-21.39,-33.11,0.44,-0.5,-2.19,0.0552
0.62,0.54,-0.97,4.02,-2.34,1.24,-19.04,-20.51,-33.11,0.44,-0.51,-2.21,0.0553
0.59,0.55,-0.97,2.91,-0.92,1.77,-18.16,-21.39,-33.98,0.45,-0.49,-2.19,0.0554
0.62,0.54,-0.97,0.4,-2.32,-2.41,-19.04,-21.09,-33.4,0.44,-0.51,-2.2,0.0556
0.61,0.54,-0.97,3.59,-0.24,1.82,-18.16,-21.39,-33.4,0.44,-0.5,-2.18,0.0557
0.6,0.55,-0.96,2.04,-1.82,-0.47,-17.58,-20.51,-33.11,0.45,-0.5,-2.19,0.0558
0.62,0.54,-0.98,2.06,-0.96,-0.84,-19.04,-20.8,-32.81,0.44,-0.51,-2.21,0.056
0.61,0.54,-0.97,4.93,1.3,0.5,-17.87,-21.09,-33.4,0.44,-0.5,-2.19,0.0561
0.62,0.54,-0.97,0.51,-0.31,-3.59,-19.04,-21.09,-33.4,0.44,-0.51,-2.2,0.0562
0.61,0.54,-0.96,0.92,-0.72,1.11,-18.46,-21.39,-33.98,0.44,-0.51,-2.19,0.0564
0.6,0.55,-0.96,5.88,-8.28,-1.29,-17.29,-20.51,-33.4,0.45,-0.5,-2.19,0.0565
0.63,0.52,-0.97,-12.03,0.29,1.96,-18.75,-20.51,-32.52,0.43,-0.52,-2.2,0.0566
0.57,0.58,-0.96,26.8,1.43,8.38,-17.87,-21.09,-33.11,0.48,-0.47,-2.21,0.0568
0.6,0.54,-0.98,-24.39,-11.64,-24.83,-18.46,-20.51,-33.11,0.44,-0.49,-2.21,0.0569
0.66,0.52,-0.99,27.54,12.82,23.34,-18.75,-20.8,-33.98,0.42,-0.53,-2.18,0.057
0.53,0.58,-0.94,-7.03,-5.04,-13.48,-18.16,-21.09,-33.4,0.49,-0.45,-2.23,0.0572
0.67,0.5,-0.99,0.33,-4.84,-4.57,-19.04,-20.21,-33.11,0.4,-0.54,-2.19,0.0573
0.58,0.58,-0.96,13.6,10.35,15.59,-16.7,-20.8,-33.4,0.48,-0.47,-2.19,0.0574
0.6,0.56,-0.96,-12.5,-12.38,-21.12,-18.16,-20.21,-33.11,0.46,-0.49,-2.21,0.0576
0.65,0.51,-0.99,14.88,5.26,19.6,-18.46,-20.21,-33.4,0.41,-0.52,-2.19,0.0577
0.56,0.58,-0.94,0.76,-1.91,-4.18,-17.87,-21.09,-33.69,0.49,-0.47,-2.21,0.0578
0.63,0.52,-0.98,-1.35,-5.07,-9.73,-19.04,-21.09,-33.11,0.42,-0.52,-2.19,0.058
0.6,0.56,-0.98,16.67,6.39,14.2,-19.04,-20.51,-33.11,0.45,-0.49,-2.22,0.0581
0.59,0.57,-0.98,-10.18,-8.67,-9.13,-17.87,-20.21,-33.4,0.46,-0.48,-2.21,0.0582
0.62,0.53,-0.97,11.12,1.24,5.07,-18.16,-20.51,-33.11,0.44,-0.51,-2.19,0.0584
0.59,0.55,-0.97,-1.48,-1.53,-4.23,-18.75,-21.97,-32.81,0.45,-0.49,-2.19,0.0585
0.62,0.55,-0.99,10.21,14.91,1.8,-18.16,-21.39,-33.4,0.44,-0.5,-2.18,0.0586
0.66,0.5,-0.94,-10.35,-8.15,-19.13,-18.75,-20.51,-33.4,0.41,-0.56,-2.17,0.0588
0.61,0.5,-1.0,21.53,9.93,17.4,-19.04,-21.09,-33.4,0.4,-0.5,-2.2,0.0589
0.56,0.62,-0.93,-4.67,-3.59,-5.58,-17.87,-20.8,-33.11,0.52,-0.46,-2.22,0.059
0.6,0.51,-1.01,-1.14,-11.85,-20.68,-18.46,-20.21,-33.11,0.41,-0.49,-2.21,0.0592
0.64,0.54,-0.97,10.92,15.59,17.99,-17.87,-20.51,-33.4,0.43,-0.52,-2.18,0.0593
0.54,0.6,-0.97,7.31,-5.73,-7.67,-17.87,-20.51,-32.81,0.5,-0.44,-2.24,0.0594
0.61,0.55,-1.01,-3.96,-8.62,-2.64,-18.16,-19.92,-33.11,0.43,-0.49,-2.21,0.0596
0.58,0.56,-0.95,-5.04,3.05,5.56,-18.75,-20.21,-33.11,0.46,-0.48,-2.23,0.0597
0.61,0.54,-1.0,11.83,-4.23,-0.88,-17.87,-20.21,-32.81,0.43,-0.49,-2.2,0.0598
0.57,0.56,-0.97,-0.82,2.88,1.18,-17.87,-20.21,-33.69,0.46,-0.47,-2.22,0.06
0.61,0.52,-0.97,1.41,-4.7,-8.8,-19.04,-20.51,-33.11,0.43,-0.5,-2.21,0.0601
0.58,0.55,-0.97,5.87,5.52,10.27,-18.16,-20.21,-33.11,0.45,-0.48,-2.22,0.0602
0.59,0.55,-0.97,2.21,-4.04,-9.18,-19.04,-20.21,-33.4,0.45,-0.49,-2.23,0.0604
0.6,0.53,-0.99,4.5,0.9,2.39,-18.46,-20.51,-33.11,0.43,-0.49,-2.21,0.0605
0.58,0.57,-0.97,6.03,-0.59,-0.73,-17.87,-19.92,-33.69,0.47,-0.48,-2.22,0.0606
0.61,0.54,-1.0,-1.24,-5.2,-0.06,-18.75,-19.92,-33.11,0.43,-0.49,-2.22,0.0607
0.58,0.56,-0.96,3.4,2.88,-0.57,-19.04,-19.92,-33.11,0.46,-0.48,-2.24,0.0609
0.61,0.54,-1.0,2.28,0.14,-2.55,-18.46,-19.92,-33.69,0.43,-0.49,-2.22,0.061
0.58,0.54,-0.97,3.28,-0.24,0.99,-17.87,-20.21,-33.11,0.45,-0.48,-2.21,0.0611
0.59,0.55,-0.98,2.17,-2.08,-3.22,-18.75,-20.51,-33.4,0.44,-0.48,-2.22,0.0612
0.6,0.54,-0.99,2.84,1.4,0.92,-18.75,-20.21,-33.4,0.44,-0.49,-2.22,0.0614
0.59,0.55,-0.97,2.7,-2.01,-0.8,-18.75,-19.92,-33.4,0.45,-0.48,-2.23,0.0615
0.6,0.55,-0.99,2.49,1.07,0.11,-17.87,-20.21,-32.81,0.44,-0.49,-2.21,0.0616
0.6,0.54,-0.98,1.01,-3.36,-3.01,-19.34,-20.21,-33.69,0.44,-0.49,-2.23,0.0618
0.58,0.55,-0.98,5.21,0.89,2.49,-18.75,-20.21,-33.11,0.45,-0.48,-2.23,0.0619
0.6,0.54,-0.98,-0.89,-2.98,-4.06,-18.75,-20.21,-33.11,0.44,-0.49,-2.22,0.062
0.59,0.54,-0.98,6.44,1.7,3.35,-18.46,-19.92,-32.81,0.44,-0.48,-2.22,0.0622
0.59,0.55,-0.98,-1.02,-2.53,-4.24,-18.46,-20.21,-33.69,0.44,-0.48,-2.22,0.0623
0.6,0.54,-0.98,5.12,0.34,1.61,-18.46,-19.92,-33.69,0.44,-0.49,-2.22,0.0624
0.59,0.55,-0.98,1.24,-0.41,-1.24,-17.58,-19.92,-32.81,0.45,-0.48,-2.21,0.0625
0.6,0.54,-0.98,2.11,-1.62,-0.68,-18.16,-21.09,-33.11,0.44,-0.49,-2.19,0.0627
0.59,0.55,-0.98,3.59,0.41,-0.37,-18.16,-20.51,-33.69,0.45,-0.48,-2.21,0.0628
0.6,0.54,-0.99,0.92,0.28,0.13,-18.16,-20.51,-33.4,0.44,-0.49,-2.2,0.0629
0.59,0.55,-0.97,1.32,-0.13,-2.01,-17.58,-20.51,-33.98,0.45,-0.49,-2.2,0.0631
0.6,0.54,-0.98,2.92,-1.37,-0.88,-18.75,-19.63,-33.11,0.44,-0.49,-2.23,0.0632
0.59,0.55,-0.98,4.94,0.84,1.3,-18.75,-20.51,-33.69,0.45,-0.49,-2.22,0.0633
0.6,0.54,-1.0,3.65,-0.14,-0.92,-17.87,-19.92,-33.4,0.44,-0.48,-2.21,0.0634
0.6,0.56,-0.97,-1.24,0.76,-1.37,-18.16,-19.92,-32.81,0.45,-0.49,-2.22,0.0636
0.59,0.54,-0.99,4.67,-2.66,-0.05,-17.58,-20.8,-33.4,0.44,-0.48,-2.19,0.0637
0.6,0.55,-0.98,0.67,2.98,-0.58,-18.46,-19.04,-33.11,0.45,-0.49,-2.24,0.0638
0.6,0.54,-0.98,1.69,-5.33,-4.23,-19.04,-20.51,-33.69,0.44,-0.49,-2.22,0.064
0.59,0.54,-0.99,6.39,4.23,3.61,-18.75,-21.09,-33.98,0.44,-0.48,-2.21,0.0641
0.62,0.58,-1.01,5.99,2.47,4.84,-18.46,-20.21,-33.11,0.46,-0.49,-2.22,0.0642
0.58,0.52,-0.97,-26.91,-14.16,-16.42,-18.16,-20.51,-32.81,0.43,-0.48,-2.21,0.0644
0.63,0.57,-0.98,55.24,25.34,28.13,-17.87,-20.21,-33.4,0.46,-0.51,-2.2,0.0645
0.53,0.53,-1.02,-28.06,-27.72,-37.72,-18.75,-20.21,-33.11,0.43,-0.44,-2.25,0.0646
0.66,0.57,-0.96,16.86,24.71,35.34,-18.46,-19.92,-33.11,0.46,-0.53,-2.2,0.0648
0.51,0.59,-0.99,11.32,-12.91,-16.46,-17.29,-21.09,-33.4,0.49,-0.42,-2.23,0.0649
0.64,0.49,-0.97,-26.12,-2.24,-20.16,-19.04,-20.51,-32.52,0.4,-0.53,-2.19,0.065
-0.2,0.41,-0.76,9.03,-147.83,74.22,-18.46,-20.51,-34.28,0.48,0.23,-2.79,0.0652
0.49,0.5,-0.97,23.09,-45.43,11.18,-18.75,-20.51,-32.52,0.43,-0.42,-2.25,0.0653
0.58,0.77,-1.07,-31.62,-25.07,-53.57,-20.8,-19.34,-33.11,0.56,-0.42,-2.33,0.0654
0.16,0.73,-0.91,-50.22,96.89,-250.0,-21.97,-12.89,-31.93,0.67,-0.14,-2.69,0.0656
0.34,0.98,-0.83,-19.28,112.93,58.04,-20.21,-13.48,-32.23,0.83,-0.26,-2.58,0.0657
0.04,0.36,-1.67,2.98,-8.73,5.32,-21.39,-13.77,-34.28,0.21,-0.02,-2.66,0.0658
0.41,0.39,-0.52,249.99,-171.91,-45.74,-18.16,-14.65,-36.33,0.53,-0.57,-2.28,0.066
0.13,1.25,-1.0,-152.95,-103.36,249.99,-15.23,-21.09,-36.04,0.89,-0.08,-2.56,0.0661
1.4,0.48,-2.0,219.02,249.99,-250.0,-10.55,-21.97,-35.16,0.19,-0.6,-1.91,0.0663
0.58,0.57,-1.13,-208.92,-79.66,119.57,-12.3,-21.68,-34.28,0.42,-0.43,-2.11,0.0664
0.55,0.63,-0.8,-121.36,36.51,98.72,-11.43,-20.51,-35.16,0.58,-0.5,-2.12,0.0666
1.03,-1.03,-1.14,249.99,95.57,-100.0,-7.91,-20.8,-35.74,-0.59,-0.59,-1.48,0.0667
0.42,0.27,-1.75,-53.25,51.67,-163.79,-10.25,-18.16,-36.91,0.15,-0.23,-2.09,0.0668
0.33,0.04,-0.62,224.04,249.99,-53.71,-4.98,-24.9,-33.98,0.06,-0.49,-1.73,0.067
0.88,-1.38,0.93,161.77,26.57,249.99,-1.46,-26.95,-29.59,-0.82,-0.49,-1.34,0.0671
0.85,-0.7,-0.28,0.15,-118.08,-43.72,-1.46,-23.73,-33.98,-0.66,-0.85,-1.53,0.0672
0.74,-0.57,-0.65,-18.56,-98.08,-32.47,-2.05,-17.87,-36.04,-0.52,-0.71,-1.41,0.0674
0.71,-0.48,-0.87,-15.85,-64.12,-18.52,-3.52,-16.11,-38.09,-0.4,-0.62,-1.42,0.0675
0.65,-0.45,-0.97,22.25,-64.34,-7.75,-2.93,-13.48,-37.21,-0.37,-0.54,-1.37,0.0676
0.46,-0.48,-0.98,40.01,-40.5,9.18,-2.93,-11.43,-34.86,-0.42,-0.4,-1.23,0.0678
0.45,-0.59,-0.9,6.26,-5.75,12.15,-2.64,-10.55,-34.28,-0.53,-0.4,-1.1,0.0679
0.43,-0.54,-1.05,47.35,10.7,43.75,-2.05,-10.55,-33.98,-0.45,-0.35,-1.12,0.0681
0.44,-0.53,-0.77,-107.97,124.66,-91.88,-2.64,-17.29,-37.21,-0.54,-0.44,-1.23,0.0682
1.3,-0.55,-0.55,-46.17,81.23,-145.73,-5.86,-29.0,-34.57,-0.37,-1.03,-1.75,0.0683
0.96,-0.14,-0.2,43.91,148.0,-18.1,-9.38,-33.4,-23.44,-0.14,-1.32,-1.97,0.0685
1.22,-0.16,-0.23,-132.02,-192.99,-58.65,-14.06,-30.47,-28.42,-0.12,-1.34,-2.02,0.0686
0.9,0.23,-0.72,210.41,47.39,-33.1,-17.58,-26.66,-30.76,0.2,-0.87,-1.97,0.0687
0.72,0.55,-0.87,16.16,-9.83,-223.87,-19.34,-22.27,-33.98,0.45,-0.61,-2.14,0.0689
0.33,0.56,-1.18,-47.44,-42.49,114.4,-19.34,-20.51,-35.16,0.43,-0.25,-2.37,0.069
0.41,0.59,-0.84,20.31,44.35,-24.66,-19.63,-18.75,-34.57,0.56,-0.38,-2.35,0.0691
0.34,0.72,-1.12,-5.2,122.36,-89.68,-20.21,-19.34,-33.69,0.55,-0.25,-2.43,0.0693
0.29,0.79,-0.96,-56.75,-9.36,-57.8,-21.97,-15.82,-32.23,0.67,-0.23,-2.56,0.0694
0.13,0.79,-0.78,-72.89,-35.77,41.88,-23.73,-16.7,-30.18,0.79,-0.11,-2.64,0.0695
0.28,0.97,-0.69,10.61,-74.4,-79.94,-24.32,-17.58,-30.47,0.92,-0.23,-2.54,0.0697
0.03,0.93,-0.5,-65.75,-89.03,15.7,-23.73,-14.94,-27.54,1.08,-0.03,-2.72,0.0698
0.08,1.13,-0.49,-33.79,126.14,-6.84,-24.32,-14.94,-28.12,1.16,-0.06,-2.69,0.07
0.1,0.99,-0.55,-17.56,29.18,6.24,-24.02,-15.23,-26.95,1.06,-0.09,-2.67,0.0701
0.05,1.06,-0.59,-53.76,-127.03,-26.49,-24.61,-14.36,-26.37,1.06,-0.04,-2.72,0.0702
-0.05,1.0,-0.2,21.14,-24.82,50.11,-25.49,-15.23,-24.9,1.36,0.05,-2.71,0.0703
0.11,1.01,-0.31,-12.07,9.69,-8.98,-24.61,-15.82,-25.49,1.25,-0.1,-2.59,0.0705
0.07,1.1,-0.35,-2.51,10.83,15.44,-24.9,-17.29,-24.9,1.26,-0.06,-2.59,0.0706
0.11,1.05,-0.32,0.68,-38.42,12.21,-24.32,-16.7,-24.32,1.26,-0.1,-2.56,0.0707
0.19,1.04,-0.38,-0.33,2.26,8.41,-24.61,-16.99,-24.61,1.18,-0.17,-2.52,0.0708
0.22,1.04,-0.34,-5.81,1.84,-2.52,-24.32,-17.58,-24.02,1.2,-0.2,-2.47,0.071
0.14,0.85,-0.26,6.38,-56.47,-9.84,-24.02,-16.99,-24.32,1.24,-0.15,-2.51,0.0711
0.18,1.05,-0.4,2.37,31.67,5.19,-24.61,-17.58,-26.07,1.18,-0.16,-2.53,0.0712
0.2,1.06,-0.38,7.17,0.79,-3.04,-24.32,-17.58,-24.9,1.18,-0.18,-2.5,0.0713
0.17,0.98,-0.48,-6.55,-95.99,-19.46,-24.61,-16.99,-26.37,1.1,-0.15,-2.57,0.0715
0.11,1.03,-0.45,-16.94,6.28,-9.47,-23.73,-15.82,-25.49,1.15,-0.1,-2.62,0.0716
0.12,1.03,-0.45,20.91,19.07,25.38,-24.02,-15.53,-24.9,1.15,-0.11,-2.61,0.0717
0.15,0.97,-0.45,5.23,-10.35,-1.91,-24.32,-16.41,-25.2,1.12,-0.14,-2.58,0.0719
0.12,1.05,-0.43,-2.69,-12.41,-2.33,-23.44,-16.41,-24.9,1.17,-0.1,-2.58,0.072
0.13,1.03,-0.45,8.06,-6.07,3.85,-24.32,-15.53,-24.9,1.14,-0.12,-2.61,0.0721
0.14,1.02,-0.46,2.89,-1.79,-0.27,-24.02,-15.53,-24.61,1.13,-0.12,-2.6,0.0723
0.12,1.02,-0.44,-0.99,1.07,-1.98,-24.02,-15.82,-24.32,1.15,-0.11,-2.6,0.0724
0.13,1.02,-0.44,-2.79,5.71,-0.99,-23.73,-16.11,-24.61,1.15,-0.12,-2.59,0.0725
0.12,0.99,-0.44,0.05,18.24,-13.33,-24.02,-16.11,-24.61,1.14,-0.11,-2.6,0.0726
0.22,0.75,-0.63,-23.95,-30.67,0.22,-24.02,-16.99,-26.37,0.84,-0.22,-2.54,0.0728
0.17,0.91,-0.48,1.59,-7.44,-2.5,-23.44,-16.7,-25.49,1.06,-0.17,-2.55,0.0729
0.15,1.03,-0.51,1.79,-7.34,-4.11,-24.32,-16.11,-26.37,1.1,-0.13,-2.6,0.073
0.1,1.03,-0.5,2.59,-5.81,-4.26,-23.14,-15.82,-25.49,1.11,-0.09,-2.63,0.0732
0.05,1.02,-0.49,3.4,0.13,-0.87,-24.02,-16.11,-26.07,1.12,-0.05,-2.66,0.0733
0.04,1.03,-0.47,6.42,31.52,15.01,-23.44,-17.58,-26.07,1.14,-0.03,-2.63,0.0734
0.32,0.95,-0.54,19.1,4.59,2.94,-24.9,-16.7,-25.78,0.99,-0.29,-2.49,0.0735
0.22,0.86,-0.46,3.19,2.54,1.12,-24.32,-17.58,-26.66,1.03,-0.22,-2.51,0.0737
0.18,0.98,-0.55,2.32,2.46,1.51,-25.2,-17.29,-26.37,1.04,-0.16,-2.57,0.0738
0.17,0.98,-0.55,-20.39,-1.1,9.44,-24.61,-16.99,-25.78,1.04,-0.15,-2.57,0.0739
0.24,0.99,-0.53,3.75,-0.04,1.31,-24.32,-17.58,-25.49,1.04,-0.21,-2.51,0.074
0.26,1.06,-0.54,44.4,-70.07,-67.64,-24.9,-17.29,-26.37,1.06,-0.22,-2.52,0.0742
0.12,0.96,-0.61,17.96,-7.22,-9.7,-24.61,-16.7,-27.54,0.99,-0.1,-2.63,0.0743
0.06,0.96,-0.68,85.56,-34.8,-16.43,-22.85,-15.23,-27.25,0.95,-0.05,-2.69,0.0744
0.01,0.45,-1.19,249.99,-116.44,249.99,-18.16,-13.77,-36.04,0.36,-0.01,-2.7,0.0746
0.08,0.36,-1.4,124.11,45.2,0.6,-15.53,-16.7,-39.84,0.25,-0.05,-2.49,0.0747
0.51,0.53,-1.11,-165.93,-6.19,-90.58,-19.04,-16.41,-39.84,0.41,-0.39,-2.34,0.0748
0.34,0.7,-0.65,-160.84,-100.07,-87.77,-21.68,-15.82,-38.38,0.77,-0.34,-2.5,0.075
0.04,1.25,-0.6,-250.0,-44.72,-43.46,-26.07,-9.67,-28.12,1.12,-0.03,-2.86,0.0751
0.02,0.87,0.01,-84.24,54.09,-64.13,-23.14,-6.74,-18.16,1.55,-0.02,-2.77,0.0752
-0.15,0.61,0.28,-29.73,34.98,44.2,-21.97,-7.03,-15.82,1.08,0.23,-3.01,0.0754
-0.03,0.75,0.27,196.81,50.65,93.85,-26.66,-10.25,-19.34,1.23,0.04,-2.81,0.0755
0.19,1.19,-0.25,249.99,-33.03,77.58,-25.78,-13.18,-32.23,1.32,-0.15,-2.67,0.0756
0.24,0.87,-1.05,232.54,-73.24,48.21,-18.75,-12.3,-39.26,0.68,-0.17,-2.68,0.0758
0.16,0.14,-1.1,217.17,-9.06,-48.61,-7.03,-11.43,-41.89,0.13,-0.14,-2.18,0.0759
0.26,-0.4,-1.32,164.04,-75.85,69.21,3.81,-6.74,-33.4,-0.29,-0.19,-0.8,0.076
-0.2,-0.69,-0.73,166.69,-38.07,-8.45,1.76,-7.32,-17.87,-0.74,0.19,-0.26,0.0761
0.17,-0.8,-0.34,131.38,-54.14,18.81,-2.64,-12.3,-12.89,-1.13,-0.19,-1.05,0.0763
-0.11,-0.85,0.08,71.76,-57.45,-18.16,-5.27,-13.48,-13.18,-1.41,0.13,-0.7,0.0764
-0.22,-0.94,0.02,-37.35,-11.82,-21.89,-3.81,-13.48,-13.48,-1.34,0.23,-0.59,0.0766
-0.09,-0.92,-0.08,-89.81,-49.23,-28.88,-2.05,-14.06,-12.89,-1.43,0.1,-0.74,0.0767
-0.01,-0.87,-0.46,-233.25,23.66,-47.7,3.81,-14.94,-18.46,-1.08,0.01,-0.68,0.0768
-0.02,-0.67,-1.0,-182.33,0.28,-5.08,4.98,-11.43,-29.88,-0.59,0.02,-0.48,0.077
-0.03,-0.07,-1.31,-250.0,4.62,-26.43,-5.27,-11.43,-39.26,-0.05,0.02,-1.86,0.0771
0.1,0.56,-1.08,-171.39,23.9,-42.69,-14.94,-12.3,-39.84,0.48,-0.08,-2.68,0.0772
0.11,0.96,-0.68,-194.37,25.63,30.75,-23.73,-12.89,-34.57,0.95,-0.09,-2.77,0.0774
0.07,1.23,-0.26,-239.07,-100.32,-37.12,-27.25,-13.18,-24.9,1.36,-0.06,-2.68,0.0775
0.08,0.96,0.28,-119.5,-62.41,-35.46,-26.37,-14.06,-17.87,1.27,-0.08,-2.56,0.0776
0.14,0.84,0.39,-2.85,15.27,2.39,-25.78,-13.77,-16.7,1.11,-0.15,-2.56,0.0778
0.19,0.85,0.36,88.61,26.9,60.49,-26.37,-15.23,-19.92,1.13,-0.2,-2.52,0.0779
0.18,1.01,0.2,-50.93,-9.69,16.01,-26.37,-16.41,-19.34,1.31,-0.18,-2.43,0.078
0.2,0.88,0.29,-43.63,-10.72,-33.0,-25.2,-14.94,-17.58,1.19,-0.21,-2.46,0.0782
0.18,0.85,0.34,13.73,2.53,1.47,-26.66,-15.53,-18.16,1.15,-0.2,-2.49,0.0783
0.16,0.91,0.32,14.45,1.59,5.61,-26.07,-15.53,-18.75,1.2,-0.16,-2.5,0.0784
0.17,0.9,0.26,21.39,3.66,0.27,-26.37,-16.7,-19.04,1.24,-0.18,-2.44,0.0785
0.18,0.91,0.27,3.23,-1.21,-0.84,-26.07,-15.53,-19.63,1.22,-0.19,-2.48,0.0787
0.18,0.92,0.27,-0.68,-2.04,-1.68,-26.07,-16.7,-19.63,1.23,-0.18,-2.45,0.0788
0.19,0.91,0.29,3.11,-1.43,-1.0,-26.37,-14.94,-18.75,1.21,-0.2,-2.49,0.0789
0.17,0.91,0.29,-4.89,-1.08,-4.81,-26.37,-16.11,-19.34,1.22,-0.18,-2.47,0.079
0.18,0.91,0.28,17.83,-1.3,-10.65,-26.66,-15.82,-18.75,1.23,-0.18,-2.47,0.0792
0.13,0.93,0.23,4.0,-1.23,-3.21,-25.49,-15.23,-19.92,1.29,-0.14,-2.5,0.0793
0.14,0.93,0.24,7.64,-0.45,-4.46,-26.66,-14.94,-20.21,1.28,-0.14,-2.52,0.0794
0.14,0.94,0.23,2.9,-0.59,-0.5,-25.2,-14.94,-19.63,1.29,-0.14,-2.5,0.0795
0.12,0.93,0.2,0.87,-0.21,1.11,-25.78,-14.94,-20.21,1.32,-0.13,-2.51,0.0797
0.08,0.99,0.21,27.11,-50.65,-52.73,-26.66,-13.48,-20.21,1.35,-0.08,-2.59,0.0798
0.1,0.97,0.29,-40.88,-58.24,15.43,-25.78,-12.89,-17.58,1.27,-0.1,-2.58,0.0799
0.25,1.04,-0.1,180.28,33.29,1.64,-26.37,-13.48,-21.97,1.32,-0.24,-2.5,0.0801
0.09,0.96,-0.05,90.84,-33.6,-38.12,-27.25,-14.06,-25.78,1.46,-0.09,-2.6,0.0802
0.17,1.19,-0.41,27.93,-22.91,-5.16,-26.37,-12.3,-25.49,1.22,-0.13,-2.68,0.0803
0.17,0.88,-0.06,32.25,-7.78,-22.16,-26.07,-12.6,-23.44,1.36,-0.19,-2.56,0.0805
0.12,1.03,-0.01,25.68,-0.73,-3.07,-26.37,-12.89,-23.14,1.46,-0.11,-2.58,0.0806
-0.08,1.15,-0.2,16.99,-5.42,-7.42,-25.49,-12.3,-23.73,1.39,0.07,-2.79,0.0807
0.13,0.99,-0.13,4.59,1.34,-10.23,-26.66,-12.6,-23.44,1.39,-0.13,-2.6,0.0808
0.0,1.03,-0.21,20.62,-2.45,-18.71,-26.66,-12.3,-24.32,1.37,-0.0,-2.74,0.081
0.13,1.02,-0.04,-8.27,-6.47,0.49,-26.95,-12.3,-23.73,1.44,-0.13,-2.6,0.0811
0.03,1.06,-0.18,6.65,-6.23,-11.41,-26.66,-12.6,-23.73,1.4,-0.03,-2.69,0.0812
0.06,1.07,-0.14,-1.99,-0.57,1.98,-26.37,-12.01,-23.73,1.43,-0.06,-2.68,0.0814
0.04,1.07,-0.14,13.73,-3.24,-5.35,-26.07,-12.3,-23.73,1.44,-0.04,-2.68,0.0815
0.05,1.09,-0.13,-120.81,7.29,8.58,-26.95,-13.18,-20.8,1.44,-0.05,-2.6,0.0816
0.04,1.13,-0.69,161.46,-58.49,-2.15,-23.44,-8.5,-32.81,1.02,-0.03,-2.91,0.0818
-0.14,0.91,-1.29,249.99,64.8,18.18,-17.58,-9.38,-37.5,0.61,0.09,-2.98,0.0819
0.1,0.1,-1.38,204.61,-9.72,-49.71,-6.45,-9.96,-39.55,0.07,-0.07,-2.2,0.082
0.04,-0.38,-1.25,249.99,-38.8,-6.48,6.74,-11.43,-31.35,-0.3,-0.03,-0.68,0.0822
-0.09,-0.76,-0.45,204.27,8.65,12.48,1.46,-12.3,-13.77,-1.02,0.1,-0.68,0.0823
-0.08,-0.84,-0.12,117.81,3.03,-53.57,-4.69,-14.06,-13.18,-1.4,0.1,-0.76,0.0824
0.04,-0.63,0.34,91.01,-14.7,42.99,-6.15,-14.06,-12.3,-1.07,-0.06,-1.12,0.0826
-0.05,-0.62,0.45,31.42,5.0,11.93,-8.5,-14.94,-12.3,-0.94,0.07,-1.19,0.0827
-0.18,-0.52,0.5,-33.64,12.09,11.08,-7.62,-13.77,-13.18,-0.78,0.25,-1.03,0.0828
-0.25,-0.71,0.38,-137.89,7.3,-124.86,-4.98,-13.77,-13.48,-1.0,0.31,-0.66,0.083
-0.08,-0.86,-0.1,-144.08,10.48,31.3,-1.76,-14.65,-14.65,-1.42,0.09,-0.71,0.0831
-0.11,-0.82,-0.55,-250.0,30.07,-44.95,5.57,-12.6,-22.56,-0.97,0.11,-0.41,0.0832
0.04,-0.18,-1.31,-250.0,-36.1,-26.73,-2.93,-13.18,-38.09,-0.14,-0.03,-1.41,0.0834
0.1,0.47,-1.33,-250.0,-33.13,-80.31,-16.41,-13.48,-38.09,0.34,-0.07,-2.62,0.0835
-0.19,1.11,-1.1,-197.45,-56.9,-41.98,-21.97,-10.84,-31.35,0.78,0.12,-2.96,0.0836
-0.27,1.02,-0.36,-180.0,-55.82,44.72,-25.2,-11.13,-22.56,1.15,0.25,-2.98,0.0838
-0.13,1.04,0.24,-93.29,-123.03,-4.67,-24.32,-11.72,-18.75,1.31,0.12,-2.79,0.0839
-0.06,0.87,0.33,-39.61,-25.12,13.14,-24.02,-12.89,-17.29,1.2,0.06,-2.71,0.084
-0.02,0.79,0.4,-9.86,-6.89,-5.72,-23.73,-12.3,-16.7,1.1,0.02,-2.71,0.0842
-0.01,0.76,0.45,-1.29,-0.05,-1.73,-23.73,-12.3,-16.99,1.03,0.01,-2.71,0.0843
-0.01,0.75,0.46,-0.33,-1.84,-0.72,-24.32,-11.72,-16.41,1.02,0.01,-2.74,0.0844
0.02,0.72,0.48,2.14,-1.75,-1.5,-22.56,-12.01,-16.7,0.98,-0.03,-2.7,0.0846
-0.02,0.78,0.46,-4.01,-7.5,3.21,-23.73,-12.6,-16.41,1.04,0.03,-2.71,0.0847
0.02,0.76,0.5,2.03,-5.2,-0.75,-24.61,-13.18,-16.41,0.99,-0.02,-2.68,0.0848
0.01,0.76,0.46,4.69,-0.85,-0.76,-24.32,-13.18,-15.82,1.02,-0.01,-2.67,0.0849
0.02,0.76,0.48,3.59,-1.2,-1.43,-24.02,-12.6,-16.41,1.01,-0.02,-2.69,0.0851
0.04,0.74,0.48,2.37,-1.54,-3.49,-24.02,-12.3,-15.23,1.0,-0.04,-2.67,0.0852
-0.0,0.77,0.46,3.36,0.56,0.38,-22.85,-12.3,-14.36,1.03,0.0,-2.67,0.0853
0.05,0.77,0.45,28.82,-6.2,-2.98,-23.73,-12.89,-16.41,1.03,-0.06,-2.64,0.0855
0.05,0.9,0.45,70.27,-4.4,-24.44,-24.9,-11.13,-19.04,1.11,-0.05,-2.73,0.0856
-0.54,0.23,-0.1,249.99,176.29,-250.0,-16.11,-1.76,-27.25,0.39,1.14,2.26,0.0857
-0.96,0.28,-0.54,43.52,5.46,-25.51,-9.38,-1.17,-30.76,0.25,1.0,2.06,0.0858
-0.26,0.49,-0.59,-2.44,-16.7,249.99,-14.36,-1.17,-30.18,0.65,0.33,2.85,0.086
-0.22,1.21,-0.45,-141.67,-1.14,249.99,-25.49,-11.13,-24.02,1.17,0.17,-2.94,0.0861
0.41,1.08,-0.11,-23.35,1.96,132.61,-26.95,-19.63,-24.02,1.2,-0.36,-2.31,0.0862
0.62,0.98,-0.15,-39.14,13.15,-39.82,-27.83,-18.75,-21.39,0.99,-0.56,-2.25,0.0864
0.53,0.83,0.05,-8.88,-4.58,9.57,-27.83,-18.16,-21.09,1.0,-0.57,-2.26,0.0865
0.48,0.97,-0.05,-9.82,4.71,11.21,-27.83,-18.16,-21.09,1.1,-0.46,-2.28,0.0866
0.53,0.98,0.04,-43.19,9.88,1.17,-27.54,-18.46,-18.75,1.08,-0.49,-2.24,0.0868
0.54,1.0,0.2,-48.4,6.33,32.94,-26.37,-19.63,-17.58,1.05,-0.48,-2.2,0.0869
0.62,0.77,0.39,-4.36,17.38,-29.48,-27.25,-19.63,-15.82,0.81,-0.62,-2.24,0.087
0.67,0.55,0.15,14.53,28.53,27.46,-26.66,-17.87,-14.94,0.67,-0.87,-2.25,0.0871
0.69,0.91,0.88,82.92,14.7,-34.12,-26.37,-18.46,-17.58,0.69,-0.5,-2.36,0.0873
0.53,0.93,0.36,-34.52,27.19,15.5,-26.37,-19.04,-16.41,0.96,-0.49,-2.24,0.0874
0.39,0.72,0.43,-3.41,-24.12,8.67,-26.66,-16.99,-16.7,0.89,-0.44,-2.36,0.0875
0.6,0.75,0.5,25.54,-12.85,8.41,-26.95,-15.23,-17.29,0.76,-0.59,-2.38,0.0877
0.32,0.6,0.16,105.58,-51.16,-26.24,-27.83,-16.99,-19.34,1.03,-0.48,-2.32,0.0878
0.37,1.02,0.16,88.65,16.6,-81.79,-27.83,-15.23,-22.85,1.2,-0.34,-2.43,0.0879
1.53,1.03,-0.24,27.66,65.97,-93.27,-26.66,-10.84,-28.42,0.59,-0.97,-2.3,0.088
0.11,1.1,-0.12,-59.01,-56.59,30.18,-26.95,-10.55,-25.49,1.43,-0.1,-2.71,0.0882
0.14,1.04,0.13,-41.39,-1.94,22.1,-26.07,-10.25,-21.39,1.39,-0.13,-2.65,0.0883
0.09,0.79,0.21,40.12,-8.31,4.31,-27.54,-12.01,-23.14,1.29,-0.11,-2.67,0.0884
0.21,1.02,0.18,-12.92,7.16,-17.93,-27.54,-12.6,-21.39,1.31,-0.2,-2.56,0.0886
0.16,1.0,0.13,18.75,5.77,7.68,-27.83,-12.6,-22.27,1.37,-0.15,-2.58,0.0887
0.18,1.07,0.23,-44.87,-29.62,30.82,-27.54,-12.89,-21.09,1.3,-0.16,-2.57,0.0888
0.24,0.75,0.06,24.29,35.33,-61.71,-27.83,-12.6,-23.14,1.25,-0.31,-2.51,0.0889
0.17,0.79,-0.1,249.99,-9.08,133.9,-27.83,-14.36,-26.95,1.33,-0.21,-2.55,0.0891
0.37,1.16,-0.56,82.08,-12.31,2.28,-25.78,-13.18,-31.05,1.05,-0.28,-2.6,0.0892
0.35,0.88,-0.88,249.99,55.2,-76.19,-21.09,-14.06,-38.38,0.74,-0.28,-2.58,0.0893
0.33,0.41,-1.11,111.09,-23.25,-12.03,-13.18,-13.18,-40.43,0.34,-0.27,-2.37,0.0895
0.3,0.23,-1.16,76.42,-4.75,-2.82,-11.72,-13.18,-41.6,0.19,-0.25,-2.24,0.0896
0.32,0.04,-1.23,20.69,8.57,-25.3,-7.32,-12.3,-43.07,0.03,-0.25,-1.93,0.0897
0.25,-0.34,-1.29,161.8,16.46,-34.42,2.05,-15.53,-39.26,-0.25,-0.18,-1.12,0.0899
0.35,-0.96,-0.67,115.62,-9.59,44.45,10.84,-11.13,-26.66,-0.91,-0.29,-0.65,0.09
0.16,-0.83,-0.65,151.89,-25.85,44.91,2.05,-12.01,-12.89,-0.89,-0.15,-0.95,0.0901
0.11,-0.92,-0.4,91.37,5.04,75.39,-3.22,-12.01,-14.06,-1.15,-0.11,-0.92,0.0903
-0.12,-0.91,-0.15,66.61,21.86,16.16,-4.1,-10.55,-14.65,-1.36,0.13,-0.53,0.0904
-0.19,-0.95,-0.06,25.01,-3.51,1.67,-4.1,-10.84,-15.23,-1.37,0.2,-0.45,0.0905
-0.04,-0.88,-0.14,-23.93,1.98,-1.49,-3.81,-10.55,-16.11,-1.41,0.05,-0.56,0.0907
-0.08,-0.93,-0.19,-8.11,-3.68,0.73,-3.22,-11.43,-17.29,-1.35,0.08,-0.53,0.0908
-0.09,-0.95,-0.23,1.08,-8.76,8.26,-3.22,-10.84,-16.11,-1.32,0.09,-0.54,0.0909
-0.08,-0.88,-0.2,-21.68,-5.78,-21.51,-2.93,-10.84,-16.7,-1.33,0.09,-0.52,0.0911
-0.07,-0.91,-0.38,-63.01,15.92,-50.51,-0.59,-10.84,-17.29,-1.17,0.07,-0.53,0.0912
0.12,-0.78,-0.69,-129.15,19.46,-51.71,4.1,-11.72,-21.39,-0.84,-0.12,-0.68,0.0913
0.14,-0.66,-0.96,-86.07,-20.41,-17.3,4.98,-12.3,-29.59,-0.6,-0.12,-0.67,0.0915
0.24,-0.38,-1.06,-135.22,-5.62,-41.63,2.64,-12.6,-33.69,-0.33,-0.21,-1.0,0.0916
0.23,-0.02,-1.32,-77.78,-22.61,19.26,-5.57,-12.01,-40.14,-0.01,-0.17,-1.84,0.0917
0.16,0.43,-1.43,-136.63,4.71,-37.64,-10.84,-12.89,-40.72,0.29,-0.1,-2.47,0.0919
0.17,0.55,-1.09,-140.08,1.63,34.42,-18.46,-14.06,-38.96,0.47,-0.14,-2.61,0.092
0.24,0.99,-0.85,-136.84,-6.88,-43.78,-22.27,-12.6,-34.86,0.84,-0.18,-2.69,0.0921
0.09,0.95,-0.38,-63.9,7.34,-19.28,-23.73,-10.84,-31.64,1.18,-0.09,-2.79,0.0923
0.03,1.13,-0.1,-164.3,-66.62,35.26,-25.49,-11.72,-25.49,1.48,-0.03,-2.72,0.0924
0.16,0.97,0.1,-19.5,-6.53,-3.76,-26.07,-12.6,-23.14,1.38,-0.16,-2.58,0.0925
0.13,0.89,0.17,39.92,17.52,28.98,-26.37,-13.77,-23.73,1.33,-0.14,-2.58,0.0927
0.05,0.93,0.24,3.78,4.84,-36.79,-24.61,-11.43,-22.27,1.32,-0.05,-2.71,0.0928
0.06,0.95,0.12,0.62,1.87,-4.32,-25.49,-12.01,-22.56,1.43,-0.06,-2.65,0.0929
0.04,1.11,0.13,1.97,-5.48,-7.16,-26.37,-12.3,-23.44,1.45,-0.04,-2.67,0.093
-0.08,0.7,-0.02,209.59,-28.82,45.68,-26.37,-12.3,-27.25,1.46,0.11,-2.86,0.0932
0.08,1.04,-0.57,227.25,-12.63,15.88,-21.39,-10.25,-36.33,1.06,-0.06,-2.85,0.0933
0.08,0.19,-1.58,249.99,-85.8,-26.12,-7.91,-8.5,-40.43,0.12,-0.05,-2.45,0.0935
-0.16,-0.45,-0.75,249.99,66.12,63.67,-1.46,-12.3,-14.06,-0.53,0.18,-0.95,0.0936
-0.26,-0.74,-0.05,54.83,15.28,-7.81,-5.27,-11.43,-16.11,-1.23,0.33,-0.33,0.0937
0.34,-0.13,-1.06,-250.0,98.66,-120.93,3.22,-10.55,-23.73,-0.11,-0.31,-1.27,0.0939
0.07,0.34,-1.46,-250.0,86.11,-35.1,-15.82,-11.13,-38.96,0.23,-0.05,-2.65,0.094
-0.02,0.84,-0.44,-224.54,-87.18,34.35,-26.37,-11.13,-21.68,1.09,0.02,-2.82,0.0941
0.27,1.19,0.19,-36.37,-15.48,17.3,-27.25,-14.94,-22.56,1.3,-0.22,-2.48,0.0943
0.2,0.85,0.22,1.73,-4.05,-7.4,-27.83,-14.36,-22.56,1.23,-0.23,-2.53,0.0944
0.19,0.93,0.19,-0.24,-1.3,-5.53,-26.37,-13.77,-21.39,1.29,-0.2,-2.52,0.0945
0.19,1.06,0.33,-32.75,-14.75,0.94,-26.37,-13.77,-19.63,1.22,-0.17,-2.55,0.0946
0.17,0.91,0.2,11.72,-2.75,-1.74,-26.66,-14.06,-21.09,1.28,-0.19,-2.52,0.0948
0.2,0.97,0.29,22.03,10.95,-21.49,-26.37,-12.3,-21.09,1.22,-0.19,-2.59,0.0949
0.18,1.02,0.16,91.72,31.73,-45.72,-26.95,-12.89,-21.68,1.34,-0.18,-2.56,0.095
0.02,0.96,0.4,21.78,11.32,-8.95,-26.66,-13.48,-21.39,1.18,-0.02,-2.7,0.0952
0.18,0.95,0.15,-18.21,17.94,-34.7,-26.37,-12.6,-22.27,1.33,-0.18,-2.57,0.0953
0.2,1.05,0.2,-5.62,20.59,-50.32,-26.37,-11.72,-22.27,1.31,-0.18,-2.6,0.0954
-1.31,1.18,0.12,-49.28,3.11,63.69,-25.78,-10.25,-23.73,0.73,0.83,2.84,0.0955
0.07,0.74,0.18,4.5,-42.44,-73.3,-23.44,-6.45,-23.73,1.31,-0.09,-2.85,0.0957
-0.51,0.7,0.13,-18.08,-32.17,1.26,-23.44,-6.45,-25.2,0.92,0.63,2.86,0.0958
-0.8,0.63,0.16,86.1,-74.67,-123.35,-23.73,-5.86,-24.9,0.66,0.89,2.68,0.0959
-0.24,0.93,0.13,11.52,-22.86,25.54,-23.73,-5.86,-24.32,1.29,0.24,3.13,0.0961
-0.42,0.94,0.07,-73.15,-150.12,-2.2,-22.56,-5.57,-21.39,1.14,0.42,3.02,0.0962
0.05,0.66,0.45,7.8,-68.12,-9.15,-22.85,-5.86,-18.75,0.96,-0.06,-2.9,0.0963
-0.05,0.71,0.09,78.86,48.71,-0.24,-20.51,-3.22,-26.66,1.43,0.07,-3.1,0.0964
-0.26,1.1,-0.07,-66.04,-32.09,61.16,-21.68,-2.93,-20.8,1.33,0.23,3.06,0.0966
0.05,0.93,0.59,13.03,46.96,125.66,-21.97,-5.27,-18.75,1.0,-0.05,-2.92,0.0967
-0.01,1.18,-0.1,34.79,-21.38,26.02,-25.2,-9.08,-21.97,1.48,0.01,-2.79,0.0968
0.15,0.87,0.12,34.84,58.07,-97.47,-24.02,-6.74,-22.27,1.36,-0.16,-2.76,0.097
-0.37,1.24,-0.08,25.67,59.39,20.22,-23.14,-4.39,-24.9,1.28,0.29,3.05,0.0971
-0.38,0.88,-0.0,19.36,-30.41,-14.67,-22.85,-4.98,-26.07,1.17,0.4,2.97,0.0972
-0.14,0.95,-0.06,13.48,17.36,84.67,-23.73,-6.15,-25.78,1.41,0.15,-3.06,0.0973
0.05,0.92,-0.03,26.21,3.13,-5.55,-24.32,-7.03,-25.78,1.51,-0.06,-2.84,0.0975
-0.03,0.96,-0.03,9.08,-17.4,-41.24,-24.9,-7.32,-26.07,1.53,0.04,-2.91,0.0976
-0.1,0.8,-0.01,-0.53,17.7,-8.27,-24.9,-6.15,-25.49,1.45,0.12,-3.04,0.0977
0.2,1.06,-0.08,11.78,8.99,4.84,-25.2,-8.5,-25.49,1.37,-0.19,-2.7,0.0979
0.16,1.07,-0.14,-2.92,7.8,0.88,-25.49,-8.79,-26.66,1.37,-0.15,-2.74,0.098
0.05,1.14,-0.21,-7.89,45.28,-133.74,-24.9,-7.91,-27.54,1.38,-0.05,-2.86,0.0981
-0.02,1.03,-0.12,-14.41,10.3,-25.05,-24.02,-7.32,-26.07,1.45,0.01,-2.91,0.0983
-0.06,0.99,-0.06,-0.85,2.21,-19.68,-24.02,-4.98,-25.49,1.49,0.06,-3.02,0.0984
-0.14,1.04,-0.19,28.73,7.3,4.85,-22.27,-4.69,-26.95,1.35,0.13,-3.1,0.0985
-0.1,1.02,-0.28,42.7,7.79,3.54,-23.14,-5.27,-29.3,1.29,0.1,-3.07,0.0986
-0.07,0.98,-0.49,64.16,11.96,13.87,-22.85,-5.86,-33.11,1.11,0.06,-3.05,0.0988
-0.05,0.92,-0.59,43.22,-2.5,3.79,-22.56,-5.57,-34.28,1.0,0.04,-3.04,0.0989
-0.05,0.93,-0.77,72.47,-5.36,-0.38,-21.09,-5.27,-35.45,0.87,0.04,-3.05,0.0991
-0.06,0.73,-0.94,88.61,-2.42,-15.78,-19.63,-4.98,-38.96,0.66,0.05,-3.07,0.0992
-0.09,0.5,-1.03,99.7,-14.85,19.03,-14.06,-5.57,-41.02,0.45,0.08,-3.06,0.0993
-0.09,0.48,-1.11,22.51,0.91,-3.27,-12.3,-3.81,-41.02,0.41,0.08,-3.12,0.0995
-0.07,0.34,-1.2,1.1,-0.99,-4.76,-14.06,-6.15,-41.6,0.28,0.06,-2.99,0.0996
-0.07,0.41,-1.17,6.88,-2.18,-0.43,-13.48,-5.27,-42.48,0.34,0.06,-3.04,0.0997
-0.05,0.56,-1.13,-93.29,-17.83,35.96,-16.11,-5.27,-40.72,0.46,0.04,-3.03,0.0998
-0.08,0.73,-1.09,-222.09,22.74,44.69,-22.85,-6.15,-36.91,0.59,0.06,-3.04,0.1
0.06,0.9,-0.74,-71.27,48.25,15.76,-26.37,-9.96,-32.23,0.88,-0.05,-2.87,0.1001
0.14,0.85,-0.45,46.14,-2.4,18.81,-25.78,-10.84,-33.69,1.06,-0.15,-2.77,0.1002
0.16,0.98,-0.89,151.38,-33.71,-29.48,-22.27,-9.38,-37.5,0.83,-0.12,-2.82,0.1004
0.06,0.56,-1.1,79.07,-21.86,-26.57,-17.58,-7.62,-40.43,0.47,-0.05,-2.86,0.1005
-0.15,0.35,-1.14,124.47,-20.73,-53.14,-10.25,-5.27,-41.02,0.3,0.12,-3.13,0.1006
-0.12,0.08,-1.02,20.49,6.42,1.45,-4.39,-4.69,-41.31,0.08,0.11,-3.14,0.1007
-0.17,-0.03,-1.2,-16.05,-1.79,7.95,-5.27,-4.1,-39.84,-0.03,0.14,2.82,0.1009
-0.15,0.29,-1.14,-137.39,2.3,81.02,-10.25,-4.1,-40.14,0.25,0.13,3.09,0.101
-0.16,0.49,-1.13,-106.37,-10.19,26.04,-18.75,-5.57,-37.5,0.41,0.13,-3.12,0.1011
0.01,0.57,-0.83,40.05,-55.63,-32.58,-15.53,-3.81,-35.74,0.6,-0.01,-3.02,0.1013
-0.28,0.4,-1.33,121.51,-13.12,-84.77,-11.72,-1.46,-38.67,0.29,0.2,2.86,0.1014
-0.36,-0.01,-1.4,166.62,4.28,-79.89,-0.88,-1.76,-38.09,-0.01,0.25,1.64,0.1015
-0.14,-0.25,-1.12,113.84,5.0,-14.69,12.6,-7.91,-24.02,-0.22,0.12,-0.27,0.1017
-0.13,-0.48,-0.85,96.08,4.94,-1.0,-0.88,-9.38,-15.23,-0.51,0.13,-0.79,0.1018
-0.13,-0.69,-0.84,99.98,32.94,-19.38,-4.69,-12.3,-17.58,-0.68,0.12,-0.89,0.1019
-0.15,-0.7,-0.49,81.21,60.58,-16.82,-2.64,-12.89,-17.29,-0.93,0.17,-0.61,0.1021
-0.01,-1.02,-0.33,26.14,1.89,-5.32,-4.39,-13.77,-18.46,-1.25,0.01,-0.7,0.1022
0.03,-1.01,-0.32,0.43,-28.94,-7.55,-3.52,-12.01,-16.41,-1.27,-0.03,-0.72,0.1023
0.09,-0.97,-0.41,-4.52,-7.58,-5.04,-2.93,-14.36,-17.29,-1.16,-0.08,-0.86,0.1025
0.13,-0.92,-0.42,14.47,13.17,-1.53,-3.81,-14.65,-16.99,-1.13,-0.13,-0.96,0.1026
-0.03,-0.97,-0.41,-13.16,-46.12,58.2,-2.93,-15.23,-16.7,-1.17,0.03,-0.79,0.1027
0.02,-0.66,-0.33,-25.31,-15.28,21.24,-3.52,-13.77,-16.7,-1.11,-0.03,-0.83,0.1029
-0.19,-0.97,-0.68,-83.92,-7.47,19.95,-0.59,-12.3,-16.11,-0.94,0.16,-0.6,0.103
-0.29,-0.46,-0.73,-170.17,175.01,46.98,2.34,-8.79,-20.21,-0.52,0.33,-0.14,0.1031
-0.35,0.14,-0.86,-200.25,-7.13,-18.01,0.29,-6.74,-31.35,0.15,0.38,2.28,0.1033
-0.38,0.17,-1.5,-119.07,29.01,14.11,-8.5,-6.74,-38.09,0.11,0.25,2.92,0.1034
-0.42,0.56,-1.04,-6.51,-33.41,14.66,-13.18,-7.62,-37.79,0.46,0.34,2.96,0.1035
-0.4,0.45,-1.01,-57.89,-100.04,7.98,-12.3,-3.81,-34.86,0.39,0.35,2.81,0.1037
-0.38,0.4,-0.85,-154.51,-11.18,34.75,-20.8,-6.15,-30.47,0.4,0.39,2.96,0.1038
0.15,1.02,-0.15,-100.4,-25.0,75.92,-25.49,-9.38,-25.49,1.37,-0.15,-2.71,0.1039
0.21,1.01,-0.11,37.23,54.35,5.69,-26.07,-10.84,-27.25,1.34,-0.21,-2.64,0.104
0.21,1.02,0.3,-199.19,1.45,-2.79,-25.49,-12.6,-20.8,1.22,-0.2,-2.57,0.1042
0.17,0.91,0.55,-117.07,53.07,-41.73,-23.44,-12.6,-15.82,1.01,-0.16,-2.59,0.1043
0.15,0.47,0.68,-122.63,40.14,-25.05,-17.58,-12.01,-10.55,0.59,-0.18,-2.52,0.1044
0.02,0.03,0.73,-220.47,53.22,-34.38,-10.55,-9.38,-11.13,0.04,-0.02,-2.42,0.1046
-0.14,-0.43,0.59,-42.98,-28.46,-48.96,-9.08,-9.96,-12.01,-0.61,0.19,-1.52,0.1047
0.06,-0.47,0.46,48.9,-67.83,44.99,-8.2,-12.6,-11.43,-0.79,-0.09,-1.46,0.1048
0.08,-0.33,0.55,93.56,51.3,-17.72,-11.13,-10.55,-11.43,-0.54,-0.13,-1.92,0.1049
-0.26,0.39,0.65,172.84,104.19,-37.85,-15.53,-6.74,-13.18,0.51,0.32,-3.04,0.1051
-0.22,0.79,0.62,222.1,39.93,79.03,-22.85,-8.5,-18.16,0.88,0.22,-2.99,0.1052
0.06,0.82,0.33,87.96,-6.32,14.79,-24.02,-10.55,-21.39,1.18,-0.07,-2.74,0.1053
-0.03,0.9,0.05,28.43,4.55,25.48,-23.14,-8.5,-25.2,1.51,0.03,-2.86,0.1055
-0.17,0.98,0.05,-22.5,-22.58,-3.14,-24.61,-7.32,-24.9,1.39,0.17,-3.04,0.1056
0.08,0.88,0.04,5.74,-6.74,9.4,-22.27,-7.32,-23.73,1.47,-0.09,-2.78,0.1057
-0.11,0.51,-0.04,43.87,-32.62,-3.33,-23.14,-8.5,-25.2,1.35,0.21,-3.04,0.1059
0.04,0.95,-0.1,21.59,-8.4,56.64,-25.2,-9.96,-25.2,1.46,-0.04,-2.76,0.106
0.17,1.05,-0.02,39.16,-4.98,27.37,-25.78,-12.01,-26.07,1.41,-0.16,-2.61,0.1061
0.12,1.05,-0.2,53.99,6.5,-51.41,-24.02,-10.25,-27.25,1.36,-0.11,-2.74,0.1062
0.09,1.12,-0.58,-6.48,17.13,-13.33,-23.44,-10.25,-30.76,1.09,-0.07,-2.82,0.1064
0.23,1.15,-0.28,-98.26,-41.9,-29.74,-24.02,-9.96,-25.78,1.26,-0.2,-2.68,0.1065
0.22,1.0,-0.18,-13.07,-48.89,21.16,-26.37,-10.84,-23.73,1.29,-0.21,-2.62,0.1066
0.34,1.21,-0.07,54.96,-31.39,20.36,-26.66,-12.6,-24.61,1.3,-0.27,-2.53,0.1068
0.07,0.76,-0.41,145.35,-47.49,-65.55,-23.44,-9.96,-26.95,1.07,-0.08,-2.8,0.1069
0.1,1.0,-0.61,76.2,-8.88,-56.53,-24.61,-9.67,-30.76,1.02,-0.08,-2.83,0.107
-0.32,0.39,-0.84,165.39,-6.77,-92.38,-17.58,-2.34,-32.81,0.41,0.33,2.86,0.1072
-0.52,0.54,-0.78,52.31,-2.42,-35.13,-17.87,-3.22,-33.98,0.52,0.5,2.73,0.1073
-0.43,0.66,-0.76,0.98,-14.07,0.0,-16.99,-3.22,-33.69,0.64,0.41,2.84,0.1074
0.0,0.98,-0.64,-30.76,-18.94,45.0,-19.63,-2.93,-30.76,1.0,-0.0,-3.06,0.1076
-0.14,0.8,-0.76,-9.03,42.85,17.33,-20.8,-4.69,-33.4,0.81,0.13,-3.13,0.1077
-0.12,0.88,-0.74,21.61,17.75,-40.44,-20.21,-5.27,-34.28,0.87,0.11,-3.1,0.1078
-0.3,0.91,-0.57,-20.08,17.63,71.29,-20.21,-6.45,-33.4,0.95,0.27,3.07,0.1079
0.02,1.08,-0.55,-85.33,-76.87,122.06,-26.37,-8.79,-29.0,1.1,-0.01,-2.9,0.1081
0.42,0.98,-0.31,-6.87,-82.57,92.18,-28.42,-15.23,-25.2,1.08,-0.38,-2.46,0.1082
0.58,1.21,-0.22,-98.63,117.84,55.53,-27.83,-14.94,-25.2,1.1,-0.44,-2.41,0.1083
0.65,1.0,-0.11,1.53,12.92,-51.24,-26.95,-16.11,-25.2,0.99,-0.57,-2.32,0.1085
1.19,1.08,-1.15,102.8,30.82,-109.03,-25.78,-13.48,-26.66,0.58,-0.65,-2.39,0.1086
0.39,0.48,-0.48,24.06,249.99,-250.0,-22.27,-8.2,-30.76,0.66,-0.53,-2.52,0.1087
-0.17,1.0,-0.06,-4.07,-140.37,170.08,-24.32,-10.25,-30.47,1.39,0.17,-3.0,0.1089
0.1,1.01,-0.25,-55.51,75.39,-10.43,-24.32,-11.13,-27.83,1.31,-0.1,-2.73,0.109
-0.07,1.02,-0.1,5.0,-10.08,-1.38,-24.61,-9.08,-27.25,1.45,0.07,-2.91,0.1091
0.08,1.07,-0.07,4.6,-29.61,21.0,-24.9,-9.96,-26.95,1.47,-0.07,-2.75,0.1093
0.05,1.02,-0.03,15.87,11.17,17.91,-26.07,-9.96,-28.12,1.51,-0.05,-2.77,0.1094
-0.0,0.99,-0.08,-44.82,-53.34,20.84,-24.02,-8.5,-25.78,1.49,0.0,-2.84,0.1095
-0.09,1.11,-0.01,3.71,-8.51,-10.53,-24.02,-7.91,-25.2,1.49,0.08,-2.93,0.1096
-0.06,0.9,-0.04,28.37,-24.29,-11.09,-23.44,-7.03,-25.78,1.49,0.07,-2.95,0.1098
0.05,0.94,0.06,17.76,48.58,19.99,-24.9,-8.5,-26.07,1.48,-0.06,-2.8,0.1099
-0.13,1.04,-0.11,8.35,-2.0,-15.26,-24.32,-6.74,-26.95,1.41,0.12,-3.03,0.11
-0.07,0.99,-0.09,0.21,-2.21,2.11,-24.02,-7.62,-26.37,1.46,0.07,-2.95,0.1102
-0.06,1.03,-0.07,-5.78,1.03,7.57,-24.61,-7.32,-27.25,1.48,0.06,-2.95,0.1103
-0.07,0.96,-0.09,32.63,-2.8,-19.9,-24.61,-8.2,-27.54,1.45,0.07,-2.94,0.1104
-0.14,1.06,-0.15,-5.29,1.59,-5.59,-24.02,-8.79,-27.25,1.37,0.13,-2.98,0.1105
-0.06,0.96,-0.09,6.02,-1.4,10.6,-24.32,-7.03,-26.37,1.46,0.06,-2.96,0.1107
-0.03,0.98,-0.09,26.66,-2.49,34.72,-24.32,-7.91,-25.49,1.48,0.03,-2.89,0.1108
0.03,1.11,-0.08,-24.53,-3.84,-40.63,-24.9,-9.08,-25.78,1.5,-0.03,-2.8,0.1109
0.16,0.95,-0.08,8.89,-21.26,-22.54,-24.61,-6.74,-26.07,1.39,-0.17,-2.78,0.1111
-0.08,1.09,-0.04,-4.76,1.53,-15.55,-24.32,-7.91,-25.78,1.49,0.07,-2.93,0.1112
-0.12,1.0,-0.04,-11.87,-0.12,6.07,-24.32,-7.03,-25.78,1.45,0.12,-3.01,0.1113
-0.07,1.01,-0.01,-14.75,-0.94,16.76,-23.73,-7.03,-25.49,1.5,0.07,-2.96,0.1114
-0.02,0.9,-0.04,-19.78,-8.54,1.82,-24.32,-7.91,-26.66,1.52,0.03,-2.89,0.1116
-0.12,1.0,0.07,6.87,0.1,2.04,-23.44,-5.57,-24.61,1.43,0.12,-3.05,0.1117
-0.11,0.99,0.01,-5.77,-1.94,-1.84,-23.73,-7.03,-24.61,1.46,0.11,-2.99,0.1118
-0.14,0.99,0.05,3.85,-0.53,-1.32,-24.32,-7.91,-26.07,1.42,0.14,-3.0,0.1119
-0.13,0.96,0.02,2.3,0.31,-4.81,-23.44,-6.74,-25.49,1.43,0.14,-3.03,0.1121
0.04,0.92,0.04,-28.21,-20.84,-39.68,-22.27,-4.1,-23.73,1.51,-0.04,-2.94,0.1122
-0.19,0.82,0.17,-1.21,87.4,-53.79,-22.85,-5.86,-22.56,1.27,0.23,-3.12,0.1123
-0.38,0.62,-0.07,249.99,-41.08,40.5,-22.56,-5.27,-25.78,1.01,0.55,2.88,0.1124
-0.31,1.01,0.01,-62.29,30.6,59.91,-23.14,-5.57,-26.37,1.28,0.29,3.07,0.1126
-0.14,0.8,-0.03,68.12,35.5,-118.68,-24.32,-7.32,-27.83,1.39,0.18,-3.07,0.1127
-0.3,1.34,0.06,-19.67,-7.38,116.17,-24.02,-7.32,-26.95,1.35,0.22,-3.1,0.1128
0.06,1.04,-0.06,-22.56,-32.71,34.93,-26.37,-12.3,-28.12,1.49,-0.06,-2.7,0.1129
0.14,1.03,-0.2,90.02,8.25,-57.38,-25.49,-11.43,-28.71,1.34,-0.13,-2.7,0.1131
0.29,1.09,-0.29,-45.18,6.97,39.93,-26.37,-13.48,-27.54,1.21,-0.25,-2.57,0.1132
0.25,1.01,-0.13,-20.05,19.65,11.05,-26.95,-13.77,-27.83,1.3,-0.24,-2.56,0.1133
0.21,1.0,-0.15,19.32,-6.69,-7.22,-27.54,-14.65,-29.3,1.32,-0.21,-2.57,0.1134
0.23,1.0,-0.2,8.0,-1.53,1.79,-25.78,-13.18,-28.42,1.27,-0.22,-2.59,0.1136
0.2,1.1,-0.25,14.27,-3.18,-29.92,-26.07,-12.01,-29.3,1.29,-0.17,-2.67,0.1137
0.16,1.06,-0.27,17.6,1.66,-17.13,-25.2,-11.43,-29.88,1.28,-0.14,-2.71,0.1138
0.03,1.1,-0.32,13.14,-3.59,-14.21,-24.9,-10.25,-30.18,1.29,-0.02,-2.84,0.1309
0.03,1.01,-0.33,-1.43,1.21,-4.62,-23.44,-9.08,-30.18,1.25,-0.03,-2.87,0.2947
0.01,1.04,-0.32,2.49,-3.04,-2.66,-24.32,-9.38,-29.59,1.27,-0.01,-2.88,0.4585
0.03,1.02,-0.31,6.52,-0.4,-3.07,-24.9,-8.5,-30.76,1.27,-0.03,-2.89,0.6224
0.0,1.02,-0.31,-13.18,1.59,6.2,-23.14,-8.79,-29.59,1.28,-0.0,-2.89,0.7823
0.02,0.96,-0.16,-61.4,14.24,-18.42,-23.73,-9.08,-27.25,1.4,-0.02,-2.83,0.9462
-0.05,1.01,-0.06,-39.28,-0.13,-8.67,-24.02,-8.2,-25.2,1.49,0.05,-2.9,1.11
-0.11,1.05,0.19,-131.78,-8.16,26.56,-24.61,-10.84,-23.14,1.36,0.11,-2.86,1.2738
-0.08,0.6,0.33,-41.68,-3.39,5.65,-24.32,-11.13,-17.87,1.06,0.12,-2.84,1.4377
-0.08,0.75,0.69,-250.0,45.96,2.72,-21.09,-12.01,-15.53,0.83,0.08,-2.76,1.5975
0.25,0.32,0.65,-197.72,48.71,53.37,-18.75,-11.72,-12.89,0.43,-0.33,-2.5,1.7614
0.01,0.09,0.71,-68.5,5.32,-13.6,-16.41,-12.6,-12.01,0.13,-0.02,-2.52,1.9252
-0.03,-0.05,0.79,-139.37,5.51,-33.66,-12.3,-12.01,-11.13,-0.07,0.04,-2.36,2.089
0.01,-0.5,0.51,8.41,15.59,-2.4,-10.84,-11.13,-12.6,-0.77,-0.02,-1.49,2.2527
-0.05,-0.39,0.61,28.72,-0.28,-5.68,-11.72,-11.43,-12.89,-0.56,0.07,-1.82,2.4165
-0.31,-0.17,1.08,74.47,-13.85,62.74,-14.36,-11.43,-11.72,-0.15,0.28,-2.57,2.5765
-0.08,0.13,0.77,129.49,-53.73,-1.48,-19.63,-12.89,-14.36,0.17,0.1,-2.67,2.7403
0.04,0.72,0.74,108.76,-22.47,-32.83,-22.85,-12.01,-17.58,0.77,-0.04,-2.72,2.9041
0.01,0.33,0.34,161.06,-12.51,-34.32,-23.73,-9.08,-20.21,0.76,-0.02,-2.85,3.0679
-0.0,0.95,0.16,83.46,20.26,15.5,-22.85,-9.08,-22.56,1.41,0.0,-2.81,3.2278
0.14,1.4,0.28,26.29,-9.83,36.1,-25.2,-10.55,-26.07,1.35,-0.09,-2.73,3.3916
-0.07,0.87,-0.27,105.58,-5.46,-26.69,-23.44,-9.38,-30.76,1.26,0.08,-2.96,3.5555
-0.03,1.08,-0.43,59.42,7.19,-2.38,-23.14,-8.5,-32.23,1.19,0.03,-2.95,3.7192
-0.05,1.02,-0.43,-0.81,-3.98,3.47,-22.56,-8.2,-32.23,1.17,0.04,-2.97,3.883
-0.1,1.02,-0.42,-8.87,-9.35,1.57,-22.56,-5.86,-32.23,1.17,0.09,-3.07,4.0431
-0.03,1.06,-0.36,-12.49,-2.96,-9.97,-21.97,-7.91,-30.76,1.24,0.03,-2.95,4.2069
-0.04,1.01,-0.39,-29.8,4.54,3.01,-23.73,-7.91,-29.88,1.2,0.04,-2.96,4.3705
-0.04,0.97,-0.23,-58.69,20.71,-15.53,-24.61,-8.79,-28.42,1.33,0.04,-2.92,4.5344
-0.03,1.2,-0.04,-109.47,34.97,-1.77,-23.14,-8.79,-23.73,1.53,0.03,-2.82,4.6983
0.03,1.03,0.24,-82.04,-5.26,9.27,-23.14,-10.84,-21.97,1.34,-0.03,-2.73,4.862
-0.09,0.75,0.41,-113.35,-10.12,-35.51,-20.21,-11.13,-16.99,1.06,0.11,-2.8,5.026
0.1,-0.2,0.35,-84.43,-20.26,-8.05,-16.11,-10.84,-13.77,-0.49,-0.23,-2.15,5.1859
-0.09,0.06,0.59,-219.43,-7.74,34.28,-9.08,-10.55,-12.3,0.11,0.15,-2.46,5.3495
-0.26,-0.95,0.39,-133.97,2.41,-49.49,-5.86,-11.43,-15.53,-1.11,0.25,-0.49,5.5134
-0.04,-0.88,-0.08,-132.99,15.01,-44.22,-3.81,-11.43,-18.16,-1.47,0.04,-0.53,5.6772
0.07,-0.93,-0.34,-55.5,-10.35,-34.83,-2.05,-12.01,-19.34,-1.21,-0.07,-0.68,5.841
0.12,-1.01,-0.49,24.06,-5.76,8.19,-2.05,-11.43,-17.87,-1.11,-0.1,-0.76,6.0008
0.08,-1.01,-0.34,142.49,-12.46,22.3,-3.52,-11.43,-17.58,-1.24,-0.08,-0.72,6.1648
0.03,-0.8,0.11,160.45,2.13,64.38,-6.15,-11.13,-14.94,-1.44,-0.04,-0.71,6.3285
-0.18,-0.47,0.55,159.88,4.02,8.64,-9.67,-10.25,-13.18,-0.69,0.25,-1.26,6.4924
-0.18,-0.03,0.71,62.61,-3.8,22.04,-12.6,-10.25,-13.18,-0.04,0.25,-2.63,6.6562
-0.05,-0.01,0.49,196.6,16.8,55.96,-18.46,-10.55,-15.82,-0.01,0.11,-2.69,6.8162
-0.15,0.68,0.61,21.07,29.58,-39.17,-21.39,-10.25,-18.46,0.83,0.16,-2.9,6.9799
-0.18,0.6,0.26,162.17,29.91,5.53,-21.97,-9.08,-23.14,1.08,0.27,-3.06,7.1438
-0.34,1.06,0.12,65.34,40.73,-13.58,-22.56,-7.91,-26.95,1.24,0.31,3.12,7.3076
-0.37,1.04,-0.06,63.05,-5.4,13.51,-21.39,-7.91,-29.0,1.22,0.34,3.08,7.4674
-0.14,0.83,-0.44,113.57,25.25,25.36,-21.68,-7.62,-31.05,1.06,0.15,-3.06,7.6313
-0.22,1.04,-0.44,30.82,-3.5,8.51,-20.21,-6.74,-32.52,1.13,0.19,-3.13,7.795
-0.23,1.06,-0.45,-9.73,-17.58,29.03,-21.68,-9.38,-34.28,1.13,0.19,-3.08,7.9589
-0.24,0.94,-0.63,8.43,-13.32,26.71,-20.51,-9.08,-32.52,0.95,0.21,-3.09,8.1227
-0.03,1.0,-0.44,-5.03,-36.96,58.13,-21.97,-9.38,-31.35,1.15,0.03,-2.92,8.2864
0.01,1.0,-0.36,-9.85,-6.58,18.46,-21.39,-8.79,-30.18,1.23,-0.01,-2.89,8.4464
0.0,1.03,-0.38,-5.21,1.11,2.08,-22.85,-9.96,-31.05,1.22,-0.0,-2.88,8.6102
0.03,1.07,-0.36,-3.68,-2.86,8.3,-22.85,-10.55,-30.18,1.25,-0.03,-2.83,8.7741
