Ax,Ay,Az,Gx,Gy,Gz,Mx,My,MZ,Roll,Pitch,Yaw,Time
-0.03,0.96,0.07,0.92,-6.29,-1.81,-16.99,-20.8,-12.6,1.49,0.03,-2.19,0.0007
0.15,0.89,0.32,0.59,-1.5,-1.59,-12.89,-21.39,-10.84,1.2,-0.15,-2.04,0.0009
0.16,0.87,0.34,0.08,-0.39,0.13,-13.18,-21.09,-9.96,1.17,-0.16,-2.03,0.05
0.15,0.89,0.32,0.84,3.75,-0.53,-13.48,-21.09,-10.55,1.19,-0.16,-2.04,0.1236
0.14,0.87,0.32,2.46,-1.35,-1.08,-13.18,-20.8,-10.25,1.19,-0.15,-2.05,0.1974
0.15,0.87,0.36,2.19,-5.25,0.05,-12.6,-20.8,-9.96,1.15,-0.16,-2.04,0.271
0.15,0.89,0.32,1.26,8.36,1.21,-12.89,-21.09,-10.25,1.19,-0.16,-2.03,0.3447
0.16,0.86,0.37,4.01,-4.43,-0.89,-13.48,-20.8,-9.38,1.14,-0.17,-2.03,0.4145
0.13,0.89,0.34,2.99,2.88,0.6,-12.89,-21.09,-9.96,1.18,-0.13,-2.05,0.4882
0.17,0.88,0.34,4.57,0.81,-0.84,-13.18,-21.09,-10.25,1.16,-0.18,-2.03,0.5619
0.15,0.85,0.35,4.49,-4.26,-1.27,-13.18,-20.8,-10.55,1.15,-0.16,-2.06,0.6357
0.13,0.89,0.3,2.45,10.87,1.42,-13.48,-21.09,-9.96,1.22,-0.14,-2.04,0.7093
0.16,0.87,0.34,4.59,-4.9,-2.36,-13.77,-20.8,-9.67,1.16,-0.17,-2.03,0.783
0.13,0.88,0.35,4.61,0.33,-0.43,-13.48,-20.51,-9.96,1.17,-0.14,-2.07,0.8528
0.15,0.9,0.32,4.52,1.91,-0.57,-12.6,-20.51,-10.55,1.19,-0.16,-2.05,0.9265
0.14,0.87,0.33,4.36,-3.21,-1.23,-12.89,-20.8,-10.55,1.18,-0.15,-2.06,1.0002
0.14,0.89,0.33,3.9,0.53,-0.8,-13.48,-20.8,-10.25,1.19,-0.15,-2.05,1.0739
0.15,0.88,0.34,4.51,-1.56,-1.25,-13.77,-20.8,-10.84,1.17,-0.15,-2.08,1.1476
0.14,0.88,0.33,4.88,-1.28,-1.29,-13.77,-21.09,-9.67,1.19,-0.15,-2.03,1.2174
0.14,0.89,0.34,3.98,0.02,-0.53,-13.18,-21.09,-9.96,1.18,-0.14,-2.04,1.2911
0.14,0.89,0.33,3.26,1.05,-0.33,-13.77,-20.21,-10.55,1.19,-0.14,-2.09,1.3648
0.13,0.88,0.33,3.41,-11.09,-3.62,-12.89,-21.09,-10.55,1.19,-0.14,-2.06,1.4385
0.14,0.89,0.33,4.43,-2.82,-2.5,-13.77,-21.09,-10.55,1.19,-0.15,-2.06,1.5122
0.14,0.89,0.33,4.79,-5.18,-2.19,-13.77,-21.09,-10.84,1.19,-0.15,-2.07,1.5859
0.13,0.91,0.3,3.96,1.98,0.37,-13.48,-20.51,-10.55,1.23,-0.14,-2.07,1.6557
0.14,0.89,0.31,2.49,7.13,2.86,-13.48,-20.8,-10.25,1.21,-0.14,-2.05,1.7294
0.14,0.89,0.32,3.21,5.97,2.53,-13.48,-21.39,-10.25,1.2,-0.15,-2.04,1.803
0.14,0.89,0.32,4.1,3.93,1.69,-13.48,-19.63,-10.55,1.19,-0.14,-2.09,1.8768
0.14,0.89,0.31,4.22,2.24,1.38,-13.48,-20.8,-10.55,1.21,-0.14,-2.06,1.9506
0.14,0.9,0.31,4.78,0.65,0.32,-13.18,-20.51,-10.25,1.21,-0.15,-2.05,2.0203
0.14,0.89,0.32,5.7,-0.66,-0.3,-14.06,-21.09,-9.96,1.2,-0.15,-2.04,2.094
0.15,0.9,0.31,5.65,-4.72,-1.78,-14.06,-20.8,-9.96,1.21,-0.15,-2.04,2.1678
0.14,0.9,0.31,5.78,-4.43,-1.86,-13.18,-20.51,-10.84,1.21,-0.15,-2.07,2.2413
0.14,0.91,0.3,5.98,-4.39,-2.01,-13.18,-20.8,-10.55,1.22,-0.15,-2.05,2.3152
0.14,0.9,0.3,5.61,-6.46,-3.29,-13.18,-21.09,-11.13,1.21,-0.15,-2.06,2.3888
0.15,0.91,0.3,6.6,-8.83,-3.95,-14.36,-21.39,-10.55,1.22,-0.15,-2.05,2.4585
0.14,0.9,0.3,7.04,-8.97,-3.32,-13.48,-21.09,-9.96,1.22,-0.14,-2.03,2.5323
0.14,0.9,0.3,5.65,-9.22,-1.8,-13.77,-21.09,-11.13,1.22,-0.15,-2.07,2.606
0.15,0.92,0.27,5.26,-13.05,0.66,-14.06,-21.68,-10.84,1.25,-0.15,-2.04,2.6798
0.13,0.93,0.25,3.59,-0.28,6.47,-14.06,-21.68,-10.25,1.28,-0.13,-2.02,2.7533
0.15,0.92,0.27,1.73,0.25,7.73,-13.48,-21.09,-10.55,1.25,-0.16,-2.03,2.8232
0.17,0.94,0.25,2.15,-3.19,8.86,-14.06,-21.97,-10.25,1.26,-0.17,-1.99,2.8969
0.17,0.93,0.24,1.19,-0.11,10.74,-13.48,-21.39,-10.55,1.26,-0.17,-2.0,2.9707
0.2,0.96,0.19,1.84,3.08,10.1,-13.48,-21.97,-10.55,1.3,-0.2,-1.95,3.0444
0.21,1.06,-0.02,21.22,-0.08,-0.06,-14.36,-21.97,-9.38,1.37,-0.2,-1.89,3.1181
0.3,1.13,0.02,34.08,25.58,-3.73,-14.94,-21.68,-9.38,1.31,-0.26,-1.87,3.1916
0.21,1.06,0.28,14.37,13.72,-17.22,-15.23,-20.51,-8.79,1.25,-0.19,-1.98,3.2616
0.17,1.11,0.29,20.61,8.75,-8.2,-15.82,-20.21,-8.5,1.28,-0.15,-2.0,3.3351
0.2,1.04,0.19,30.23,24.87,-13.05,-16.7,-19.63,-8.79,1.31,-0.19,-1.98,3.4089
0.22,1.04,0.19,46.07,-18.55,-19.53,-17.58,-19.34,-8.2,1.3,-0.2,-1.97,3.4827
0.08,1.02,0.16,49.67,-10.16,-17.44,-19.04,-19.63,-9.67,1.4,-0.07,-2.08,3.5562
0.03,0.99,0.1,44.79,7.32,-9.59,-19.92,-19.04,-9.08,1.47,-0.03,-2.07,3.6261
0.03,0.87,0.06,37.32,14.08,-3.21,-20.51,-19.04,-10.84,1.49,-0.04,-2.11,3.6999
0.09,0.76,0.0,29.16,6.96,-3.84,-20.51,-18.46,-12.01,1.45,-0.12,-2.12,3.7735
0.05,0.68,0.03,13.93,13.43,2.01,-21.68,-18.16,-12.01,1.49,-0.07,-2.15,3.8473
0.03,0.82,-0.04,10.96,13.35,9.73,-21.97,-18.46,-12.6,1.51,-0.03,-2.18,3.9209
0.03,1.01,-0.12,8.26,9.78,28.72,-21.68,-17.58,-11.72,1.45,-0.03,-2.23,3.9956
0.14,1.1,-0.24,8.98,39.51,21.99,-22.56,-17.87,-13.18,1.32,-0.12,-2.27,4.0682
0.37,1.06,-0.36,14.78,-17.98,-6.03,-22.56,-18.46,-12.6,1.12,-0.32,-2.19,4.142
0.01,0.91,-0.33,0.41,-13.21,6.24,-22.85,-18.46,-12.89,1.22,-0.01,-2.39,4.2118
0.29,1.2,-0.42,-17.57,37.46,6.34,-23.14,-18.46,-12.6,1.17,-0.22,-2.25,4.2855
0.4,0.91,0.13,-28.69,-91.26,-52.93,-22.27,-18.46,-11.72,1.14,-0.41,-2.09,4.3591
-0.26,0.99,0.4,-45.14,19.66,-7.51,-22.27,-18.75,-11.13,1.12,0.24,-2.55,4.4328
-0.05,1.03,0.26,-38.01,49.47,2.28,-21.97,-17.58,-11.13,1.32,0.05,-2.36,4.5065
0.13,1.02,0.16,-24.09,-9.41,-7.68,-21.09,-17.29,-10.25,1.37,-0.13,-2.15,4.5804
0.05,0.99,0.1,-16.17,-23.16,-6.49,-20.8,-18.16,-10.25,1.46,-0.05,-2.13,4.6501
0.01,0.99,0.17,-17.74,-2.34,-0.61,-19.92,-18.16,-10.55,1.4,-0.01,-2.21,4.7238
0.07,1.01,0.06,-13.85,-11.05,-3.57,-20.51,-18.46,-9.67,1.48,-0.07,-2.06,4.7977
0.03,1.0,0.05,-11.52,-19.06,-5.78,-19.63,-19.34,-9.38,1.51,-0.03,-2.04,4.8711
0.07,0.93,0.26,-13.6,-22.38,-2.44,-19.34,-19.04,-8.5,1.29,-0.07,-2.12,4.9453
-0.03,0.94,0.33,-8.48,-11.05,-0.48,-18.75,-20.51,-8.2,1.23,0.03,-2.2,5.0149
0.14,0.89,0.31,-6.81,-5.38,6.96,-19.04,-19.34,-9.38,1.21,-0.14,-2.13,5.0883
0.13,0.97,0.17,-4.07,-9.17,0.67,-19.04,-19.92,-8.5,1.36,-0.13,-2.01,5.162
0.07,1.0,0.13,-4.18,-13.28,-0.36,-18.46,-19.92,-8.79,1.43,-0.07,-2.03,5.2358
0.12,0.9,0.31,-1.15,-12.86,0.53,-18.46,-20.21,-8.5,1.22,-0.13,-2.08,5.3095
0.1,0.94,0.24,-1.34,-8.4,-0.56,-18.75,-20.21,-8.5,1.3,-0.1,-2.06,5.3794
0.11,0.93,0.23,-2.36,1.1,4.39,-18.16,-20.8,-8.2,1.31,-0.11,-2.02,5.453
0.15,0.93,0.28,-0.77,-3.49,1.63,-18.16,-20.21,-8.5,1.25,-0.15,-2.04,5.5269
0.1,0.9,0.31,-0.06,-0.01,1.97,-18.16,-20.51,-8.5,1.23,-0.11,-2.08,5.6003
0.12,0.92,0.29,2.25,-2.44,2.34,-18.46,-20.8,-8.5,1.24,-0.13,-2.06,5.674
0.14,0.92,0.26,3.58,-5.04,1.24,-18.16,-20.8,-7.91,1.26,-0.14,-2.01,5.744
0.13,0.91,0.29,4.58,-6.23,0.56,-17.87,-21.09,-8.2,1.24,-0.13,-2.03,5.8191
0.14,0.92,0.26,5.23,-5.96,-0.34,-18.46,-20.8,-7.91,1.26,-0.15,-2.01,5.8912
0.14,0.93,0.27,4.23,-4.11,-0.12,-18.46,-20.51,-7.91,1.25,-0.15,-2.02,5.9649
0.14,0.92,0.27,3.24,-2.38,0.05,-18.75,-21.39,-8.5,1.25,-0.14,-2.03,6.0385
0.14,0.92,0.25,1.54,0.19,0.55,-18.75,-21.09,-7.32,1.27,-0.15,-1.98,6.1083
0.16,0.94,0.23,1.46,-7.87,-0.63,-18.46,-21.09,-8.5,1.28,-0.17,-1.99,6.1821
0.13,0.91,0.25,1.06,0.28,0.23,-18.75,-21.09,-7.91,1.27,-0.13,-2.01,6.2558
0.13,0.91,0.26,2.61,-4.49,0.47,-18.46,-21.09,-7.32,1.26,-0.14,-1.99,6.3296
0.15,0.95,0.28,0.3,-5.78,1.61,-18.46,-21.68,-8.5,1.24,-0.15,-2.01,6.4031
0.12,0.95,0.18,0.14,-0.02,5.62,-18.46,-21.68,-8.2,1.35,-0.12,-1.97,6.4729
0.15,1.09,-0.11,3.16,0.04,4.3,-18.16,-20.8,-7.03,1.4,-0.14,-1.89,6.5468
0.31,1.25,-0.24,7.04,12.43,-13.44,-18.75,-21.09,-7.03,1.27,-0.24,-1.89,6.6203
0.23,1.7,0.19,43.6,-51.76,-32.19,-20.8,-20.51,-8.5,1.4,-0.13,-1.98,6.694
0.11,1.53,0.47,69.97,-18.94,-45.22,-20.8,-18.75,-9.96,1.26,-0.07,-2.21,6.7678
-0.1,1.54,0.4,144.57,20.32,-21.22,-23.44,-17.29,-11.72,1.31,0.06,-2.41,6.8415
-0.13,1.18,0.34,179.57,26.47,-2.9,-24.32,-15.82,-14.94,1.27,0.11,-2.59,6.9153
-0.21,0.75,0.18,184.02,79.03,23.17,-24.9,-14.65,-18.46,1.23,0.26,-2.83,6.985
-0.0,0.1,-0.09,124.05,69.97,21.97,-25.49,-14.94,-21.97,0.85,0.02,-2.73,7.0586
0.22,0.17,-0.43,48.27,52.78,15.82,-25.2,-15.23,-23.14,0.35,-0.43,-2.45,7.1324
0.39,0.33,-0.51,-10.03,2.75,-12.32,-25.78,-15.23,-23.73,0.48,-0.56,-2.41,7.2061
0.27,0.45,-0.51,-53.99,-15.15,-24.2,-25.49,-14.65,-22.27,0.66,-0.38,-2.5,7.2798
0.14,0.58,-0.46,-78.23,-56.38,-41.6,-25.78,-15.23,-21.39,0.88,-0.18,-2.59,7.3535
0.04,0.83,-0.28,-110.04,-96.58,-21.25,-25.49,-14.36,-19.34,1.24,-0.05,-2.61,7.4277
-0.26,1.21,-0.14,-88.89,21.35,20.2,-26.66,-15.53,-18.16,1.33,0.21,-2.74,7.4971
0.01,1.5,-0.26,-50.17,48.08,43.42,-25.78,-16.11,-17.29,1.4,-0.01,-2.49,7.5708
0.4,1.25,-0.52,-68.8,49.63,88.9,-26.66,-16.99,-17.58,1.09,-0.29,-2.4,7.645
0.73,1.28,-0.27,-17.83,-176.36,-89.58,-24.9,-16.7,-15.53,1.03,-0.51,-2.24,7.7182
-0.41,0.97,0.65,-51.43,55.85,6.08,-24.32,-17.29,-14.94,0.9,0.34,-2.79,7.7918
0.0,1.05,0.25,-51.67,26.37,9.67,-23.73,-16.7,-12.89,1.34,-0.0,-2.39,7.8655
0.19,1.02,0.07,-31.48,-29.19,-15.02,-23.14,-16.99,-12.89,1.37,-0.19,-2.2,7.9393
-0.01,0.93,0.2,-23.46,-61.27,-14.98,-22.56,-17.58,-12.6,1.36,0.01,-2.35,8.009
-0.01,0.86,0.32,-21.95,30.48,12.47,-22.56,-17.58,-12.3,1.21,0.01,-2.42,8.0828
0.1,0.96,0.21,-17.01,-7.46,1.3,-21.39,-16.99,-12.01,1.33,-0.11,-2.26,8.1564
0.04,0.88,0.25,-13.89,18.48,7.66,-21.68,-18.16,-10.84,1.3,-0.05,-2.26,8.2304
0.22,0.85,0.24,-22.66,-19.53,1.26,-21.39,-17.87,-10.55,1.2,-0.24,-2.16,8.3038
-0.04,0.99,0.3,-20.59,7.61,15.15,-21.09,-18.16,-11.43,1.27,0.04,-2.36,8.3775
0.23,0.92,0.2,-9.28,-37.81,-2.98,-20.51,-18.16,-10.84,1.25,-0.24,-2.12,8.4475
0.03,0.88,0.32,-9.23,31.05,12.41,-20.51,-18.16,-9.96,1.22,-0.03,-2.28,8.521
0.18,0.91,0.37,-0.3,-5.67,1.39,-20.21,-17.87,-10.25,1.15,-0.18,-2.21,8.595
0.15,0.86,0.38,4.41,-7.03,-0.89,-20.21,-18.75,-10.25,1.13,-0.16,-2.22,8.6684
0.07,0.89,0.35,5.73,22.62,9.95,-20.21,-17.87,-10.25,1.19,-0.07,-2.28,8.7421
0.1,0.9,0.37,2.05,15.59,7.68,-21.39,-19.04,-10.25,1.16,-0.1,-2.25,8.8119
0.12,0.87,0.35,7.26,13.66,3.5,-20.8,-18.46,-9.08,1.17,-0.12,-2.2,8.8856
0.13,0.9,0.33,3.63,-0.84,1.8,-21.09,-18.16,-9.67,1.19,-0.14,-2.21,8.9593
0.12,0.93,0.29,3.22,-1.75,2.04,-20.51,-18.16,-10.84,1.24,-0.13,-2.22,9.0329
0.14,0.91,0.26,1.62,-3.77,0.95,-20.51,-18.46,-9.96,1.25,-0.15,-2.16,9.1067
0.13,0.9,0.34,1.28,-2.23,3.3,-21.09,-18.75,-9.67,1.19,-0.13,-2.2,9.1765
0.16,0.88,0.36,1.53,1.06,5.41,-20.51,-18.16,-9.38,1.15,-0.16,-2.2,9.2501
0.16,0.87,0.32,0.89,-4.44,3.68,-20.51,-19.04,-9.96,1.18,-0.18,-2.17,9.3239
0.16,0.88,0.32,1.59,-6.29,3.65,-20.51,-18.46,-9.96,1.19,-0.17,-2.18,9.3976
0.19,0.92,0.29,2.39,-3.88,5.73,-20.8,-18.75,-9.38,1.21,-0.2,-2.13,9.4714
0.17,0.97,0.15,4.54,-2.7,6.13,-20.8,-18.75,-9.67,1.34,-0.17,-2.07,9.541
0.2,1.08,0.07,45.27,15.87,0.86,-21.09,-19.04,-9.96,1.38,-0.18,-2.04,9.6148
0.24,1.15,0.03,12.43,20.25,-4.6,-20.8,-18.16,-10.55,1.37,-0.2,-2.07,9.6884
-0.02,1.21,0.25,17.91,-0.77,-15.88,-19.92,-17.87,-10.25,1.37,0.02,-2.25,9.7623
0.05,0.98,0.42,23.02,12.6,-14.57,-19.92,-17.58,-10.25,1.16,-0.04,-2.32,9.8358
0.02,1.01,0.3,54.85,31.32,-14.6,-19.63,-16.41,-10.84,1.28,-0.02,-2.33,9.9097
0.14,0.92,0.2,59.7,21.86,-16.08,-20.51,-15.53,-12.3,1.31,-0.15,-2.29,9.9833
0.08,0.91,0.12,66.26,24.27,-13.06,-20.8,-15.23,-13.18,1.41,-0.09,-2.31,10.0531
0.03,0.84,0.05,64.65,25.59,-0.86,-20.51,-14.36,-13.18,1.5,-0.04,-2.33,10.1268
0.03,0.82,0.02,63.79,39.02,20.13,-20.21,-13.48,-15.23,1.53,-0.04,-2.41,10.2006
0.07,0.85,-0.04,21.17,-24.15,43.19,-21.68,-14.06,-16.11,1.48,-0.08,-2.41,10.2742
0.05,0.97,-0.24,53.92,49.76,49.46,-21.97,-13.77,-16.7,1.32,-0.05,-2.53,10.3479
0.26,1.08,-0.48,11.46,21.46,19.2,-21.68,-15.23,-16.99,1.1,-0.22,-2.43,10.4215
0.25,0.81,-0.27,-51.22,-24.04,-21.63,-21.09,-15.53,-16.11,1.14,-0.29,-2.34,10.4955
0.1,2.0,-0.61,-45.5,-12.83,-39.92,-19.34,-14.94,-14.65,1.27,-0.05,-2.45,10.569
0.09,0.62,0.36,-46.97,-42.58,-28.84,-19.34,-15.53,-13.18,1.03,-0.13,-2.42,10.6388
-0.0,0.88,0.29,-46.21,10.57,-8.65,-17.58,-15.53,-12.89,1.25,0.01,-2.43,10.7127
0.14,1.02,0.21,-36.92,-16.86,-17.18,-16.7,-15.82,-11.13,1.33,-0.14,-2.2,10.7862
-0.02,0.99,0.16,-28.13,-31.64,-16.2,-16.41,-15.23,-11.43,1.41,0.02,-2.33,10.8599
-0.06,0.95,0.18,-23.57,-15.32,-4.75,-15.23,-15.53,-11.13,1.37,0.06,-2.36,10.9337
0.04,0.94,0.17,-18.55,-2.98,1.22,-14.65,-16.11,-9.96,1.39,-0.04,-2.19,11.0033
0.05,0.97,0.16,-13.52,-10.51,-3.93,-14.65,-16.7,-10.55,1.4,-0.05,-2.18,11.0771
0.1,0.97,0.17,-12.73,-19.78,-4.95,-14.65,-16.99,-9.96,1.37,-0.1,-2.12,11.1508
0.04,0.98,0.13,-12.63,-16.57,-3.6,-14.36,-17.58,-9.96,1.43,-0.04,-2.13,11.2245
-0.03,0.92,0.27,-12.2,-5.91,1.08,-14.06,-17.29,-9.38,1.29,0.03,-2.24,11.2983
0.1,0.9,0.35,-11.62,1.69,6.08,-13.48,-17.58,-9.08,1.19,-0.1,-2.14,11.368
0.06,0.89,0.34,-6.84,8.59,6.41,-12.89,-17.58,-9.67,1.2,-0.07,-2.17,11.4416
0.04,0.96,0.18,-2.72,-10.16,-1.17,-13.18,-17.29,-9.38,1.38,-0.04,-2.13,11.5155
0.12,0.89,0.31,-1.68,5.12,5.62,-13.18,-16.99,-9.67,1.21,-0.13,-2.14,11.5891
0.09,0.91,0.29,-0.63,-11.1,1.17,-12.89,-16.99,-8.79,1.25,-0.09,-2.12,11.6628
0.08,0.89,0.27,-1.07,-4.5,4.7,-13.18,-17.87,-9.38,1.26,-0.08,-2.12,11.7327
0.1,0.9,0.32,-2.14,-2.37,5.41,-12.6,-16.99,-8.79,1.22,-0.1,-2.12,11.8063
0.09,0.87,0.36,-2.21,1.45,8.54,-13.48,-17.87,-9.08,1.17,-0.09,-2.14,11.88
0.14,0.9,0.3,-3.78,0.21,7.58,-13.18,-17.87,-8.79,1.22,-0.15,-2.07,11.9536
0.13,0.93,0.24,-1.79,-7.64,5.33,-12.89,-18.16,-9.38,1.28,-0.14,-2.06,12.0282
0.13,0.93,0.21,1.47,-9.67,7.91,-12.3,-18.16,-8.79,1.31,-0.13,-2.02,12.0972
0.16,1.02,0.08,-0.72,-3.68,8.39,-12.6,-18.16,-7.62,1.4,-0.15,-1.91,12.1708
0.24,1.17,0.06,24.19,-2.17,-14.03,-12.89,-18.16,-6.74,1.36,-0.2,-1.85,12.2447
0.17,1.25,0.11,15.79,-3.73,-25.57,-12.6,-17.58,-4.69,1.41,-0.14,-1.8,12.3182
0.06,1.22,0.28,30.94,-22.04,-32.93,-13.18,-17.29,-4.69,1.34,-0.05,-1.94,12.3919
-0.07,1.17,0.3,61.95,12.63,-21.98,-14.94,-17.87,-3.22,1.31,0.06,-2.0,12.4657
-0.02,1.28,0.21,89.1,51.95,-14.88,-18.75,-15.82,-3.52,1.41,0.02,-1.97,12.5394
0.09,1.27,0.17,120.39,14.98,-19.24,-21.39,-14.06,-6.15,1.42,-0.07,-2.09,12.6091
-0.18,1.13,0.07,134.63,68.08,-10.61,-24.61,-11.13,-10.55,1.4,0.16,-2.61,12.683
-0.05,0.65,-0.04,116.95,87.65,13.65,-26.95,-10.25,-13.77,1.47,0.08,-2.65,12.7566
0.09,0.14,-0.15,59.7,60.23,10.41,-27.54,-9.38,-16.99,0.67,-0.42,-2.65,12.8305
0.2,0.23,-0.34,3.19,50.33,7.87,-27.83,-8.79,-18.46,0.53,-0.46,-2.66,12.904
0.2,0.46,-0.42,-35.98,31.09,-5.42,-29.3,-8.5,-17.87,0.77,-0.32,-2.73,12.9776
0.02,0.56,-0.24,-65.11,-25.23,4.4,-30.47,-9.08,-16.7,1.16,-0.04,-2.8,13.0476
0.05,1.06,-0.39,-80.47,-21.87,20.57,-32.52,-10.25,-14.36,1.22,-0.04,-2.72,13.1213
0.32,0.95,-0.67,-97.51,8.96,-36.7,-33.98,-9.67,-14.36,0.91,-0.27,-2.73,13.1949
0.2,1.67,-0.46,126.61,229.76,18.88,-34.28,-7.03,-16.41,1.28,-0.11,-2.8,13.2686
-1.02,0.98,0.81,-63.24,72.23,11.86,-32.81,-7.91,-12.3,0.64,0.68,3.1,13.3423
-0.0,0.99,0.48,-81.18,52.67,20.07,-32.23,-7.91,-11.43,1.12,0.0,-2.83,13.4159
0.27,1.04,0.21,-63.6,-15.01,7.15,-30.76,-7.91,-9.08,1.26,-0.25,-2.59,13.4857
-0.07,1.04,0.22,-47.23,2.51,9.86,-29.88,-8.79,-9.67,1.36,0.06,-2.68,13.5595
0.02,1.06,0.06,-27.95,-18.44,-5.42,-29.3,-9.38,-8.2,1.51,-0.02,-2.37,13.6332
-0.0,0.94,0.08,-29.58,-22.12,-1.06,-28.71,-10.55,-6.74,1.48,0.0,-2.29,13.7069
0.2,0.9,0.13,-21.72,-82.66,-27.83,-27.83,-12.01,-5.86,1.31,-0.22,-2.23,13.7806
0.05,0.99,0.41,-27.3,-15.91,9.28,-27.54,-12.3,-3.81,1.18,-0.05,-2.4,13.8543
0.28,0.9,0.28,-16.22,-46.79,-8.67,-26.37,-13.18,-3.81,1.15,-0.29,-2.22,13.9242
0.13,0.81,0.34,-3.43,-48.87,-21.26,-25.78,-14.36,-3.52,1.15,-0.15,-2.25,13.9978
0.14,0.93,0.38,-5.36,-6.85,12.28,-26.95,-14.65,-3.52,1.16,-0.13,-2.25,14.0713
0.17,0.87,0.32,-2.99,-3.91,2.95,-26.37,-14.65,-2.93,1.18,-0.18,-2.18,14.1453
0.2,0.86,0.38,-2.18,-1.14,5.76,-26.66,-15.53,-3.22,1.11,-0.21,-2.21,14.2188
0.19,0.86,0.35,-1.5,-2.94,4.98,-25.49,-15.53,-2.93,1.14,-0.21,-2.16,14.2886
0.17,0.93,0.25,1.09,0.23,5.74,-26.66,-15.23,-2.34,1.26,-0.18,-2.04,14.3625
0.23,0.9,0.32,-0.61,-6.54,4.04,-25.78,-15.82,-2.34,1.16,-0.23,-2.08,14.436
0.21,0.86,0.41,-0.63,-5.45,1.92,-26.95,-15.82,-2.64,1.08,-0.22,-2.21,14.5097
0.19,0.85,0.37,0.98,2.92,5.17,-26.37,-15.82,-2.05,1.11,-0.2,-2.16,14.5795
0.21,0.87,0.32,5.53,-3.35,6.28,-26.95,-16.41,-3.22,1.16,-0.22,-2.13,14.6532
0.16,1.02,0.05,10.78,21.22,9.35,-27.25,-15.23,-2.64,1.41,-0.16,-1.86,14.7268
0.36,1.13,0.02,16.78,-4.88,-23.17,-28.12,-14.36,-4.1,1.26,-0.31,-2.07,14.8006
0.25,1.33,0.2,14.54,-33.42,-52.99,-27.54,-13.48,-5.27,1.34,-0.18,-2.14,14.8744
0.06,1.19,0.39,28.45,-26.07,-41.53,-27.54,-13.18,-5.86,1.25,-0.05,-2.36,14.9481
0.05,0.95,0.42,42.79,27.1,-19.28,-27.25,-11.43,-7.91,1.15,-0.05,-2.56,15.0217
0.07,0.9,0.34,62.65,21.87,-16.26,-26.95,-10.25,-10.84,1.2,-0.08,-2.62,15.0955
0.04,0.86,0.24,69.11,31.85,-15.14,-27.25,-9.38,-13.18,1.3,-0.04,-2.68,15.1653
0.02,0.75,0.11,69.47,23.9,-8.69,-26.66,-8.79,-14.94,1.43,-0.03,-2.68,15.2388
0.05,0.66,0.02,53.88,41.1,0.14,-26.66,-8.5,-17.29,1.5,-0.07,-2.66,15.3127
0.12,0.59,0.0,34.15,26.47,4.95,-27.54,-7.91,-19.92,1.38,-0.19,-2.67,15.3863
0.08,0.69,-0.06,13.73,-43.54,22.6,-27.25,-8.5,-19.63,1.42,-0.12,-2.69,15.46
0.03,0.88,-0.06,8.43,-16.56,13.46,-28.12,-8.79,-21.68,1.5,-0.03,-2.76,15.53
0.03,0.97,-0.19,-19.82,64.89,25.88,-28.42,-9.38,-22.85,1.38,-0.04,-2.79,15.6035
0.33,1.37,-0.32,-5.97,9.25,2.14,-28.71,-8.79,-22.56,1.25,-0.23,-2.69,15.6772
0.27,1.36,-0.19,-67.35,-78.51,-35.71,-26.66,-7.91,-20.8,1.33,-0.2,-2.69,15.751
-0.24,0.91,0.52,-42.65,-10.06,-9.88,-25.78,-7.91,-20.51,1.01,0.23,-3.05,15.8245
0.06,0.99,0.39,-32.98,-6.29,0.47,-25.49,-8.2,-20.21,1.19,-0.05,-2.82,15.8983
-0.0,0.97,0.25,-19.22,0.99,-4.96,-24.61,-8.2,-19.63,1.32,0.0,-2.83,15.9681
0.14,1.01,0.12,-9.32,-44.33,-13.1,-25.2,-8.5,-19.63,1.39,-0.14,-2.68,16.0418
0.01,0.93,0.22,-11.03,-9.5,-1.55,-24.61,-8.5,-18.46,1.34,-0.01,-2.79,16.1155
0.01,0.94,0.18,-8.65,-13.66,-3.85,-24.61,-8.5,-19.04,1.38,-0.01,-2.78,16.1893
0.12,0.95,0.18,-9.31,-35.61,-9.47,-24.61,-9.08,-18.46,1.34,-0.13,-2.67,16.263
0.06,0.99,0.13,-6.88,-25.51,-6.11,-24.02,-9.38,-18.46,1.43,-0.06,-2.68,16.3365
0.03,0.93,0.31,-5.13,0.63,3.0,-23.73,-9.96,-17.29,1.24,-0.03,-2.73,16.4064
-0.01,0.89,0.3,-6.48,1.02,5.02,-24.61,-9.96,-17.58,1.25,0.01,-2.76,16.4801
0.09,0.93,0.25,-1.19,-1.27,3.72,-23.44,-9.96,-16.41,1.29,-0.09,-2.65,16.5537
0.14,0.9,0.32,-0.15,-4.67,2.01,-24.02,-9.38,-16.99,1.2,-0.15,-2.67,16.6275
0.11,0.93,0.27,3.67,-11.35,-1.8,-23.44,-9.67,-16.41,1.27,-0.11,-2.65,16.7011
0.26,0.96,0.27,10.78,-23.89,-6.09,-23.44,-9.67,-16.41,1.2,-0.25,-2.57,16.771
0.17,0.97,0.2,13.16,-24.44,-9.16,-22.85,-9.67,-16.11,1.31,-0.17,-2.59,16.8447
0.06,0.91,0.33,17.84,-46.69,-22.48,-24.32,-9.67,-15.82,1.22,-0.07,-2.7,16.9184
0.06,0.93,0.29,22.82,-31.42,-14.88,-24.32,-11.13,-16.11,1.27,-0.06,-2.64,16.9921
0.09,0.94,0.19,25.76,-51.89,-21.31,-23.73,-10.84,-15.53,1.35,-0.1,-2.57,17.0659
0.16,0.91,0.29,19.93,-43.61,-15.57,-24.32,-11.13,-15.82,1.22,-0.16,-2.57,17.1395
0.17,0.97,0.19,22.52,-52.38,-16.23,-24.61,-11.72,-14.36,1.32,-0.17,-2.48,17.2133
0.2,0.98,0.07,16.66,-62.1,-32.93,-24.32,-11.72,-14.36,1.36,-0.2,-2.43,17.2831
0.34,1.02,-0.07,22.16,-129.04,-46.34,-24.9,-12.6,-13.77,1.24,-0.32,-2.37,17.3567
-0.08,0.91,0.17,13.17,-49.32,-22.52,-24.61,-12.6,-13.18,1.36,0.09,-2.6,17.4305
-0.47,0.95,0.11,5.13,5.8,-15.19,-24.32,-13.18,-12.3,1.1,0.46,-2.9,17.5041
0.17,1.04,0.06,3.79,-46.65,-16.92,-24.61,-13.48,-12.89,1.4,-0.16,-2.33,17.5781
0.14,1.01,0.05,0.63,-28.22,-15.78,-24.61,-13.18,-11.13,1.42,-0.14,-2.29,17.6515
-0.03,0.97,0.14,-1.42,-6.71,0.74,-24.61,-13.48,-12.01,1.43,0.03,-2.45,17.7212
0.09,1.02,0.06,-0.71,0.34,0.34,-24.32,-13.48,-12.01,1.47,-0.09,-2.31,17.7951
0.12,0.93,0.09,-2.09,-11.98,0.96,-24.02,-14.06,-11.72,1.41,-0.13,-2.29,17.8687
0.02,0.97,0.12,-0.02,33.98,20.79,-24.32,-13.77,-12.01,1.45,-0.02,-2.38,17.9423
0.03,0.97,0.14,2.32,38.94,18.42,-24.02,-13.77,-12.89,1.42,-0.03,-2.41,18.0161
0.3,1.06,0.29,14.92,-29.27,-10.57,-24.61,-13.77,-12.01,1.19,-0.27,-2.36,18.0899
0.14,0.96,0.19,8.88,-33.45,-20.12,-23.73,-14.06,-12.3,1.33,-0.14,-2.36,18.1596
0.3,0.98,-0.02,0.49,-43.4,-35.01,-23.44,-14.06,-11.72,1.27,-0.3,-2.25,18.2333
0.48,1.02,0.08,9.12,-167.88,-80.31,-24.61,-16.11,-9.67,1.13,-0.44,-2.15,18.307
0.29,0.88,0.25,12.74,-174.55,-95.22,-24.32,-16.99,-8.2,1.16,-0.31,-2.15,18.3809
-0.09,0.76,0.37,-4.65,-222.96,-116.71,-25.2,-20.21,-7.32,1.1,0.11,-2.37,18.4544
-0.39,0.76,0.41,16.26,-118.8,-79.06,-26.07,-21.68,-6.45,0.93,0.42,-2.58,18.5281
-0.78,1.09,-0.04,17.39,-80.22,-14.89,-26.07,-22.56,-7.91,0.95,0.62,-2.72,18.6018
0.26,0.97,0.16,7.77,-4.28,-1.23,-26.37,-22.27,-8.5,1.27,-0.25,-1.98,18.6715
0.08,1.03,0.05,21.09,-130.49,-57.75,-26.95,-22.85,-8.79,1.47,-0.08,-1.95,18.7454
-0.1,0.86,0.41,17.5,-81.33,-26.75,-27.83,-23.73,-9.38,1.12,0.1,-2.36,18.819
0.0,0.93,0.17,11.51,-72.58,-26.59,-26.95,-24.9,-9.96,1.39,-0.01,-2.1,18.8927
-0.11,0.96,0.14,4.33,-70.78,-20.34,-27.83,-25.2,-10.25,1.39,0.11,-2.21,18.9665
0.06,0.99,0.14,5.28,-83.08,-21.2,-27.54,-25.49,-10.55,1.42,-0.06,-2.03,19.0401
0.02,0.97,0.18,0.14,-73.21,-17.66,-28.12,-26.66,-12.01,1.39,-0.02,-2.12,19.1098
-0.03,0.98,0.19,-1.66,-39.44,-6.47,-27.25,-26.07,-11.13,1.38,0.03,-2.16,19.1836
0.05,0.91,0.21,-3.38,-12.52,-2.77,-27.83,-25.78,-12.3,1.34,-0.05,-2.15,19.2573
0.44,0.94,0.13,15.34,-60.13,-17.0,-27.83,-26.66,-12.01,1.11,-0.44,-1.96,19.3311
-0.59,0.98,0.2,8.61,-14.16,-1.04,-28.12,-26.95,-13.48,1.0,0.54,-2.72,19.4046
0.12,0.93,0.21,0.82,8.35,14.85,-27.83,-27.25,-12.89,1.32,-0.12,-2.09,19.4745
0.13,0.97,0.2,-0.29,0.72,4.33,-28.42,-27.25,-13.18,1.33,-0.13,-2.08,19.5482
0.13,0.92,0.25,1.14,-14.7,0.7,-27.83,-28.12,-13.18,1.27,-0.13,-2.1,19.6219
0.06,0.95,0.19,0.47,18.25,10.62,-27.83,-27.54,-12.6,1.36,-0.07,-2.09,19.6962
0.15,0.96,0.21,-0.15,0.69,4.42,-27.83,-27.25,-12.89,1.31,-0.15,-2.06,19.7693
0.08,0.94,0.24,-0.59,-2.9,5.29,-27.54,-26.95,-12.3,1.31,-0.09,-2.11,19.8429
0.11,0.96,0.17,0.9,-3.86,6.71,-27.25,-28.42,-12.89,1.36,-0.12,-2.04,19.9129
0.14,1.03,0.05,-0.03,9.46,13.64,-27.54,-29.0,-12.3,1.43,-0.13,-1.95,19.9864
0.18,1.12,-0.14,21.51,34.97,24.96,-27.25,-28.71,-12.01,1.37,-0.16,-1.97,20.0602
0.14,0.99,0.13,-18.8,-21.83,-5.0,-28.71,-29.0,-12.6,1.38,-0.14,-1.99,20.1339
0.14,1.27,0.2,-1.03,-16.03,-9.16,-29.88,-28.42,-12.6,1.38,-0.11,-2.04,20.2076
0.09,1.0,0.31,11.62,1.64,-20.2,-30.76,-28.42,-13.18,1.26,-0.09,-2.16,20.2814
0.13,0.94,0.2,36.24,8.74,-9.36,-32.23,-27.25,-15.82,1.32,-0.14,-2.16,20.3511
0.14,0.87,0.19,50.48,13.45,-1.8,-31.93,-26.37,-17.58,1.31,-0.16,-2.2,20.4248
0.15,0.83,0.12,56.78,12.26,5.72,-33.98,-26.37,-19.63,1.34,-0.18,-2.21,20.4987
0.08,0.94,0.02,62.65,21.58,22.05,-33.69,-26.37,-21.68,1.49,-0.08,-2.24,20.5722
0.15,1.08,-0.13,49.53,37.75,35.61,-33.4,-26.95,-23.73,1.39,-0.14,-2.27,20.6459
0.28,1.06,-0.24,21.12,2.5,1.34,-34.28,-27.54,-24.9,1.23,-0.26,-2.27,20.7196
0.26,0.93,-0.2,21.67,-0.6,0.9,-35.16,-28.12,-26.37,1.23,-0.26,-2.27,20.7894
0.17,0.81,-0.09,1.25,0.49,2.18,-34.57,-27.83,-27.54,1.34,-0.21,-2.29,20.8631
0.21,1.01,-0.11,-37.77,20.0,-20.29,-35.74,-28.12,-26.66,1.34,-0.2,-2.28,20.9368
0.18,1.09,0.11,-41.08,-61.5,-46.06,-36.62,-26.07,-26.95,1.38,-0.16,-2.33,21.0106
-0.06,1.0,0.3,-45.59,26.31,-7.76,-37.21,-25.49,-25.2,1.27,0.06,-2.56,21.0842
0.08,1.0,0.27,-33.26,18.32,-5.75,-37.5,-25.49,-24.32,1.3,-0.08,-2.43,21.1579
0.12,0.96,0.24,-22.57,-28.05,-17.71,-37.21,-25.49,-23.73,1.3,-0.12,-2.38,21.2317
-0.0,0.97,0.18,-15.26,-27.65,-14.03,-38.38,-25.2,-23.73,1.39,0.0,-2.45,21.3014
0.0,0.99,0.13,-10.24,-6.42,-4.05,-37.21,-25.2,-23.73,1.44,-0.0,-2.41,21.3751
0.07,0.98,0.13,-9.93,-7.58,-4.07,-38.38,-24.02,-23.14,1.42,-0.07,-2.38,21.4489
0.06,0.98,0.11,-9.19,4.05,1.27,-38.09,-24.9,-22.85,1.44,-0.06,-2.35,21.5225
0.02,0.96,0.19,-8.31,-0.21,2.03,-36.62,-25.2,-23.14,1.37,-0.02,-2.43,21.5963
0.05,0.96,0.22,-3.62,-2.24,1.82,-37.21,-24.61,-21.97,1.34,-0.05,-2.41,21.6661
0.08,0.92,0.24,-2.46,-6.44,4.36,-37.21,-25.2,-21.68,1.3,-0.08,-2.39,21.7397
0.1,0.97,0.16,-2.3,-4.02,3.11,-37.79,-25.49,-21.68,1.38,-0.11,-2.32,21.8135
0.08,0.95,0.17,-1.37,-4.98,3.07,-36.91,-24.9,-21.97,1.38,-0.08,-2.36,21.887
0.07,0.96,0.18,-1.34,-7.39,2.69,-37.21,-25.2,-21.39,1.37,-0.07,-2.35,21.9611
0.09,1.0,0.13,-1.09,-4.03,3.11,-36.91,-26.07,-20.8,1.41,-0.08,-2.29,22.0307
0.11,0.96,0.18,-5.25,1.22,6.7,-37.5,-25.49,-20.8,1.35,-0.11,-2.31,22.1043
0.08,0.97,0.14,-7.7,14.11,11.45,-36.91,-26.95,-20.51,1.41,-0.08,-2.27,22.1779
0.15,0.97,0.07,-3.65,19.63,13.64,-37.21,-26.66,-18.75,1.4,-0.15,-2.18,22.2516
0.3,1.27,-0.16,26.02,38.28,-3.94,-37.21,-27.25,-21.68,1.31,-0.23,-2.22,22.3254
0.19,1.41,0.2,8.85,-81.37,-32.55,-37.79,-25.49,-22.85,1.38,-0.13,-2.32,22.3991
0.1,1.18,0.36,29.04,-24.62,-23.32,-36.91,-24.02,-25.2,1.26,-0.08,-2.48,22.4728
0.09,1.12,0.26,57.23,15.1,-18.71,-35.16,-22.27,-27.83,1.33,-0.08,-2.52,22.5426
0.07,1.14,0.16,82.27,6.1,-19.05,-32.52,-21.09,-29.88,1.41,-0.06,-2.54,22.6163
-0.06,1.24,0.09,95.09,11.8,-23.15,-29.59,-20.21,-32.52,1.49,0.05,-2.66,22.69
-0.08,0.83,0.03,88.13,46.79,0.43,-28.12,-20.8,-33.98,1.46,0.1,-2.72,22.7638
0.05,0.39,-0.04,64.47,37.61,1.18,-26.37,-20.51,-34.28,1.4,-0.13,-2.53,22.8374
0.04,0.25,-0.09,25.65,21.22,-5.85,-24.9,-21.97,-34.86,1.18,-0.15,-2.53,22.9111
0.06,0.57,-0.2,6.0,8.03,6.48,-24.61,-21.68,-36.04,1.22,-0.1,-2.58,22.981
-0.05,0.81,-0.24,-16.37,-24.33,30.53,-24.61,-21.68,-37.79,1.28,0.06,-2.73,23.0546
0.04,0.93,-0.17,-41.34,-8.71,16.4,-24.32,-21.97,-38.38,1.38,-0.04,-2.63,23.1284
0.12,1.34,-0.32,-48.52,49.36,21.93,-24.61,-22.85,-37.79,1.32,-0.09,-2.57,23.2021
0.74,2.0,-0.68,10.15,-18.46,-40.27,-25.2,-22.27,-37.21,1.1,-0.34,-2.4,23.2758
0.16,0.65,0.48,1.68,-53.55,-43.27,-24.02,-21.39,-34.28,0.91,-0.19,-2.52,23.3495
-0.36,1.17,0.59,-42.11,26.05,-5.08,-25.49,-21.68,-33.4,1.04,0.27,-2.88,23.4231
-0.04,0.94,0.43,-45.55,35.17,10.73,-24.9,-21.97,-31.35,1.14,0.04,-2.66,23.4929
0.1,0.98,0.17,-27.32,-12.17,-4.62,-26.07,-21.97,-31.64,1.37,-0.1,-2.51,23.5667
0.03,0.96,0.23,-16.16,-27.68,-9.17,-25.78,-21.39,-31.35,1.34,-0.03,-2.58,23.6404
0.12,0.99,0.13,-13.75,-9.67,-4.68,-26.37,-20.8,-31.35,1.39,-0.12,-2.5,23.714
-0.04,0.97,0.18,-9.49,-15.85,-6.12,-26.95,-21.39,-31.35,1.39,0.04,-2.64,23.7877
0.08,1.0,0.15,-3.84,-41.56,-12.21,-26.66,-20.51,-31.35,1.4,-0.08,-2.54,23.8616
0.04,0.98,0.1,-4.29,-18.14,-5.01,-26.95,-20.21,-31.35,1.46,-0.04,-2.57,23.9312
-0.02,0.98,0.13,-8.74,-11.5,2.09,-27.54,-20.21,-31.93,1.43,0.02,-2.64,24.005
0.09,0.96,0.21,-7.55,-13.46,1.84,-27.54,-19.92,-31.05,1.34,-0.09,-2.56,24.0789
0.13,0.93,0.16,-4.71,-10.15,0.6,-26.66,-20.8,-31.05,1.36,-0.13,-2.5,24.1523
0.07,0.97,0.22,-6.48,-11.13,1.49,-26.95,-20.21,-30.47,1.34,-0.07,-2.56,24.226
0.12,0.94,0.25,-5.2,-5.58,3.62,-26.37,-20.51,-29.88,1.28,-0.13,-2.52,24.2959
0.05,0.93,0.18,-5.77,6.0,8.82,-26.95,-20.51,-30.47,1.37,-0.06,-2.56,24.3694
0.11,0.93,0.26,-6.61,2.74,6.63,-26.66,-20.51,-29.59,1.27,-0.12,-2.53,24.4432
0.1,0.94,0.19,-4.6,-6.95,4.88,-26.07,-21.09,-28.71,1.34,-0.1,-2.49,24.5169
0.1,1.06,-0.07,5.89,24.44,19.64,-26.66,-20.8,-28.12,1.46,-0.09,-2.46,24.5905
0.27,1.16,-0.15,46.05,99.6,-22.45,-24.61,-21.68,-28.12,1.31,-0.23,-2.37,24.6645
0.19,1.48,0.01,18.75,-66.93,-31.12,-24.61,-21.39,-27.25,1.45,-0.12,-2.41,24.738
0.08,0.91,0.45,25.8,-46.01,-30.94,-24.61,-20.21,-26.66,1.11,-0.08,-2.55,24.8078
-0.03,0.87,0.33,54.86,29.17,-4.89,-24.02,-20.21,-26.95,1.2,0.04,-2.63,24.8816
0.11,0.88,0.15,68.81,57.8,2.24,-22.85,-19.92,-26.95,1.36,-0.12,-2.46,24.9552
0.16,0.9,0.03,78.84,28.87,8.92,-22.27,-20.21,-28.12,1.4,-0.17,-2.41,25.0289
0.08,0.94,-0.01,48.25,-10.39,38.86,-23.44,-21.09,-29.0,1.49,-0.08,-2.46,25.1026
0.18,0.97,-0.17,47.81,22.42,24.72,-23.14,-21.39,-29.0,1.33,-0.18,-2.42,25.1763
0.24,0.89,-0.14,4.38,-1.19,4.36,-23.44,-21.09,-28.71,1.26,-0.26,-2.36,25.2461
0.16,0.87,-0.21,-48.87,15.44,-11.02,-23.44,-21.39,-27.54,1.27,-0.18,-2.42,25.3199
0.05,1.48,-0.23,-40.02,16.57,-18.2,-23.44,-21.39,-25.78,1.41,-0.03,-2.48,25.3936
0.23,0.84,0.14,-45.19,-32.89,-26.35,-24.32,-19.92,-25.49,1.26,-0.27,-2.36,25.4673
-0.05,0.96,0.3,-43.4,44.17,-0.22,-24.61,-20.51,-23.44,1.26,0.05,-2.58,25.5409
0.11,0.97,0.27,-34.81,-9.88,-10.35,-25.2,-20.21,-23.14,1.28,-0.11,-2.45,25.6147
0.1,0.98,0.17,-24.29,-6.5,-7.82,-24.9,-20.8,-22.56,1.38,-0.1,-2.4,25.6844
0.02,0.96,0.2,-19.81,-28.42,-12.72,-24.61,-20.51,-21.97,1.37,-0.02,-2.46,25.7581
0.07,0.96,0.25,-15.53,-10.05,-3.34,-25.49,-20.21,-21.97,1.31,-0.07,-2.46,25.832
0.03,0.92,0.23,-10.61,-11.22,-3.04,-25.49,-20.21,-21.68,1.33,-0.03,-2.47,25.9056
0.0,0.92,0.2,-8.77,-1.0,-0.34,-24.9,-20.51,-21.39,1.36,-0.0,-2.47,25.9792
0.08,0.95,0.22,-3.49,-1.75,1.8,-24.61,-20.51,-21.97,1.33,-0.08,-2.43,26.049
0.08,0.88,0.31,-0.32,13.56,6.32,-24.61,-20.8,-21.09,1.22,-0.09,-2.43,26.1227
0.05,0.94,0.27,-0.37,-7.7,-1.3,-24.9,-19.92,-21.39,1.29,-0.05,-2.47,26.1965
0.1,0.96,0.25,-6.21,-16.93,2.93,-25.2,-20.51,-21.39,1.3,-0.1,-2.41,26.2701
0.12,0.95,0.21,-3.08,-24.98,-0.59,-24.61,-20.21,-21.68,1.33,-0.12,-2.39,26.3438
0.05,0.95,0.13,-4.52,22.18,15.56,-24.9,-21.39,-20.8,1.43,-0.06,-2.37,26.4175
0.08,1.1,-0.19,0.6,32.63,19.27,-24.9,-21.68,-20.21,1.39,-0.07,-2.35,26.4873
0.43,1.16,-0.14,-10.91,44.3,-14.77,-25.2,-21.09,-18.46,1.2,-0.35,-2.19,26.5649
0.3,1.69,0.04,35.35,-51.15,-25.27,-26.37,-20.8,-19.04,1.39,-0.18,-2.26,26.6347
0.08,1.23,0.43,39.07,-25.09,-28.88,-26.66,-19.92,-20.51,1.23,-0.06,-2.48,26.7085
0.02,1.61,0.39,84.89,-14.49,-27.46,-26.07,-19.04,-21.97,1.33,-0.01,-2.52,26.7821
0.02,1.3,0.33,142.23,21.12,-20.54,-24.9,-18.46,-25.49,1.32,-0.01,-2.59,26.8559
-0.17,0.83,0.19,164.96,62.82,0.71,-24.32,-18.46,-29.0,1.27,0.2,-2.83,26.9297
0.07,0.02,0.01,112.78,51.67,11.67,-23.14,-19.34,-31.64,0.21,-1.32,-2.09,26.9994
0.14,-0.02,-0.16,36.26,22.41,-0.69,-21.97,-19.34,-32.52,-0.09,-0.7,-2.1,27.0731
0.01,0.37,-0.3,-9.37,5.14,2.66,-22.85,-18.46,-33.4,0.89,-0.02,-2.69,27.1468
-0.05,0.71,-0.33,-26.74,-11.46,30.17,-23.14,-18.75,-33.69,1.12,0.07,-2.76,27.2205
0.04,1.0,-0.36,-68.86,-28.93,12.68,-25.2,-18.16,-31.93,1.23,-0.03,-2.67,27.2946
0.04,1.12,-0.34,-70.98,65.01,9.03,-26.66,-19.04,-31.93,1.28,-0.03,-2.65,27.3679
0.32,0.97,-0.39,-98.87,-1.98,-15.01,-27.83,-19.04,-29.88,1.09,-0.3,-2.46,27.4415
0.53,2.0,-1.4,-66.81,-21.01,-78.64,-27.83,-17.29,-28.42,0.93,-0.22,-2.57,27.5154
-0.42,0.17,0.68,-95.25,-22.75,2.14,-28.42,-16.99,-28.12,0.21,0.54,-3.14,27.5851
0.1,0.88,0.49,-59.74,35.95,12.89,-28.71,-16.7,-27.83,1.05,-0.1,-2.66,27.6588
-0.05,0.94,0.21,-35.61,-2.74,-0.58,-29.0,-16.7,-26.07,1.34,0.05,-2.71,27.7325
0.12,0.99,0.04,-20.43,-60.54,-19.11,-28.71,-16.41,-25.78,1.44,-0.12,-2.52,27.8062
-0.01,0.97,0.11,-21.89,1.37,7.98,-28.71,-16.41,-25.49,1.45,0.01,-2.63,27.8759
0.14,0.93,0.25,-17.92,-6.36,5.22,-29.0,-16.7,-24.61,1.28,-0.14,-2.55,27.9497
0.2,1.02,0.05,-18.33,-2.11,-0.06,-28.71,-16.41,-24.32,1.37,-0.19,-2.47,28.0235
0.12,0.99,0.05,-20.06,-43.06,-16.66,-28.12,-16.7,-23.73,1.44,-0.12,-2.48,28.0971
-0.04,0.92,0.37,-19.19,-8.94,2.84,-29.0,-16.41,-23.14,1.19,0.04,-2.7,28.1708
0.11,0.82,0.34,-9.77,19.01,17.24,-28.42,-16.99,-22.56,1.16,-0.12,-2.56,28.2446
0.14,0.93,0.34,-7.12,0.09,7.26,-28.71,-16.99,-22.85,1.2,-0.14,-2.54,28.3143
0.12,0.95,0.28,-5.98,-8.61,1.98,-29.88,-16.99,-22.85,1.26,-0.12,-2.54,28.3879
0.13,0.92,0.21,-4.47,-5.57,3.56,-29.0,-17.29,-22.56,1.31,-0.14,-2.5,28.4622
0.13,0.96,0.13,-1.41,-0.43,8.59,-29.0,-16.99,-21.39,1.38,-0.14,-2.45,28.5354
0.18,1.12,-0.2,72.34,45.9,54.93,-29.0,-17.58,-22.85,1.33,-0.16,-2.46,28.609
0.19,1.19,0.21,-8.22,-85.88,-14.24,-29.3,-17.58,-23.14,1.34,-0.16,-2.47,28.6828
0.07,0.97,0.5,13.35,-41.2,-11.96,-27.54,-16.7,-23.44,1.09,-0.07,-2.63,28.7564
0.09,0.89,0.31,41.49,7.07,-3.02,-27.83,-16.11,-24.32,1.22,-0.09,-2.61,28.8262
0.09,0.91,0.23,65.12,50.94,11.14,-27.25,-16.99,-26.07,1.31,-0.09,-2.58,28.9
0.18,0.98,0.07,68.7,14.81,8.05,-26.66,-16.99,-28.71,1.37,-0.18,-2.51,28.9736
0.19,1.0,0.01,55.74,-25.01,-0.52,-26.07,-16.99,-29.59,1.38,-0.19,-2.51,29.0476
0.14,1.01,-0.02,40.53,-12.3,-10.57,-25.78,-16.41,-30.76,1.43,-0.14,-2.56,29.1211
-0.04,0.86,0.17,20.8,4.36,8.93,-24.9,-16.11,-31.05,1.37,0.05,-2.76,29.1909
0.09,0.96,-0.08,17.99,20.19,5.14,-24.32,-15.53,-31.93,1.45,-0.1,-2.63,29.2647
0.19,0.92,-0.18,-39.33,7.25,-5.7,-24.61,-16.11,-31.35,1.29,-0.2,-2.55,29.3383
0.16,1.19,-0.11,-41.28,14.77,-11.67,-24.9,-16.11,-30.18,1.41,-0.13,-2.57,29.4121
-0.02,0.85,0.28,-47.53,3.27,-5.9,-25.2,-17.29,-29.3,1.25,0.02,-2.71,29.4857
0.29,1.08,0.13,-35.89,-32.49,-17.68,-25.49,-16.11,-28.71,1.28,-0.26,-2.49,29.5594
-0.01,0.95,0.34,-24.09,23.69,1.78,-26.37,-16.99,-28.71,1.23,0.01,-2.71,29.6332
0.04,0.95,0.27,-20.07,-7.66,-8.13,-25.2,-16.7,-27.54,1.29,-0.04,-2.65,29.7029
0.11,0.96,0.19,-11.25,-30.39,-8.24,-26.07,-16.11,-27.83,1.35,-0.11,-2.59,29.7766
0.09,0.95,0.17,-8.04,-25.73,-6.4,-25.78,-16.41,-27.54,1.37,-0.09,-2.59,29.8503
0.05,0.98,0.12,-8.39,-6.56,0.18,-26.07,-16.41,-27.83,1.43,-0.05,-2.61,29.924
0.1,0.93,0.2,-8.23,-12.52,0.05,-26.66,-15.53,-26.95,1.33,-0.1,-2.61,29.9978
0.08,0.9,0.28,-3.72,3.49,5.17,-25.49,-16.11,-26.95,1.25,-0.08,-2.63,30.0675
0.05,0.93,0.32,-6.28,5.78,5.84,-26.66,-15.82,-27.25,1.23,-0.05,-2.67,30.1411
0.13,0.92,0.33,-5.56,-12.8,4.01,-26.66,-16.7,-27.25,1.21,-0.13,-2.59,30.215
0.09,0.95,0.14,-5.1,-9.38,4.65,-26.07,-16.11,-26.66,1.39,-0.09,-2.58,30.2886
0.1,1.04,-0.03,-2.38,16.43,13.12,-26.37,-16.99,-26.37,1.47,-0.1,-2.52,30.3624
0.27,1.19,-0.43,69.63,46.56,40.33,-25.78,-17.87,-26.37,1.17,-0.21,-2.5,30.436
0.29,1.57,-0.04,-6.1,-110.88,-34.23,-24.61,-16.99,-26.07,1.39,-0.18,-2.47,30.5097
0.15,1.6,0.26,28.81,-58.46,-30.26,-24.32,-16.99,-26.37,1.39,-0.09,-2.55,30.5834
0.08,1.64,0.4,51.28,29.55,-19.94,-24.02,-15.53,-26.07,1.33,-0.05,-2.64,30.6532
0.06,1.1,0.42,107.09,23.7,-20.45,-22.85,-15.53,-26.95,1.2,-0.05,-2.66,30.7269
-0.11,0.51,0.39,140.37,45.69,-11.1,-22.27,-14.06,-29.59,0.9,0.17,-2.92,30.8006
0.1,0.1,0.13,108.89,44.56,-19.49,-21.39,-14.36,-30.76,0.53,-0.56,-2.35,30.8743
0.26,0.11,-0.02,54.3,-6.27,-11.47,-20.21,-14.06,-32.23,0.4,-1.17,-2.06,30.948
-0.21,0.58,-0.17,12.55,-26.52,27.62,-20.8,-14.36,-33.11,1.13,0.33,-3.08,31.0217
-0.02,0.98,-0.29,-34.35,61.74,51.96,-20.8,-15.53,-31.93,1.28,0.02,-2.76,31.0915
0.19,1.28,-0.43,-47.45,7.21,15.7,-20.8,-16.99,-31.64,1.22,-0.14,-2.59,31.1652
0.19,1.03,-0.55,-26.02,12.28,16.94,-20.8,-17.58,-31.93,1.05,-0.16,-2.57,31.2389
0.17,0.95,-0.42,-62.12,23.51,20.03,-20.8,-18.46,-31.35,1.13,-0.16,-2.54,31.3127
0.44,2.0,-1.2,-57.54,-69.61,-56.58,-21.09,-17.58,-29.59,1.0,-0.19,-2.54,31.3863
0.02,0.47,0.66,-51.17,-60.59,-25.65,-20.51,-16.7,-28.12,0.61,-0.03,-2.65,31.46
0.1,0.93,0.39,-43.94,14.33,1.4,-20.8,-16.99,-27.25,1.16,-0.1,-2.58,31.5298
0.17,1.0,0.29,-35.24,0.69,-2.98,-21.39,-16.41,-25.78,1.25,-0.16,-2.52,31.6034
0.16,0.97,0.13,-22.69,-57.01,-19.86,-22.27,-16.41,-26.37,1.36,-0.17,-2.5,31.6771
-0.03,0.97,0.12,-16.89,-0.6,-0.86,-21.39,-16.41,-25.2,1.44,0.03,-2.64,31.751
0.12,0.97,0.11,-13.26,-24.89,-5.81,-21.09,-16.99,-25.2,1.4,-0.13,-2.49,31.8246
0.08,0.98,0.13,-14.49,-18.2,1.44,-21.39,-16.11,-25.2,1.42,-0.08,-2.55,31.8984
0.1,0.93,0.27,-11.8,-10.1,4.12,-21.09,-16.99,-23.73,1.27,-0.11,-2.52,31.9721
0.07,0.95,0.26,-8.84,-9.61,6.48,-21.09,-16.41,-23.14,1.29,-0.07,-2.55,32.0418
0.15,0.94,0.24,-6.16,-13.74,6.58,-21.68,-16.41,-24.32,1.28,-0.15,-2.51,32.1156
0.15,0.96,0.21,-4.16,-21.43,6.35,-21.68,-16.99,-24.32,1.31,-0.15,-2.48,32.1893
