Ax,Ay,Az,Gx,Gy,Gz,Mx,My,MZ,Roll,Pitch,Yaw,Time
0.19,0.95,0.19,1.66,-1.04,-0.93,-16.41,-22.85,-19.63,1.3,-0.19,-2.19,0.0007
0.18,0.95,0.21,2.01,0.5,-0.77,-17.29,-22.56,-19.34,1.29,-0.19,-2.21,0.0009
0.19,0.96,0.19,2.41,-1.75,-1.79,-16.99,-22.85,-19.63,1.3,-0.19,-2.2,0.0012
0.18,0.96,0.2,2.61,-2.04,-1.58,-16.7,-23.14,-19.34,1.3,-0.18,-2.2,0.0014
0.19,0.95,0.21,2.53,-3.29,-1.8,-17.29,-22.56,-19.04,1.29,-0.19,-2.2,0.0016
0.18,0.96,0.19,3.14,0.42,-0.66,-16.99,-22.56,-19.63,1.31,-0.18,-2.21,0.0019
0.18,0.96,0.19,2.78,1.39,-0.01,-16.99,-22.56,-18.46,1.3,-0.19,-2.18,0.0021
0.19,0.96,0.21,2.18,-1.47,-0.38,-16.41,-22.85,-18.75,1.28,-0.19,-2.18,0.0023
0.19,0.96,0.18,3.2,-0.29,-0.77,-17.58,-21.97,-19.34,1.3,-0.19,-2.22,0.0026
0.18,0.96,0.2,3.14,-0.74,-0.88,-16.11,-22.27,-18.75,1.29,-0.18,-2.19,0.0029
0.19,0.96,0.2,3.48,-1.5,-0.86,-16.99,-22.27,-19.04,1.29,-0.19,-2.2,0.0031
0.19,0.96,0.19,2.74,-1.78,-0.74,-17.29,-23.44,-19.34,1.3,-0.19,-2.18,0.0033
0.18,0.96,0.19,2.98,0.08,-0.87,-16.7,-23.14,-19.34,1.31,-0.18,-2.19,0.0036
0.18,0.95,0.19,3.52,0.66,-0.76,-17.29,-23.44,-19.63,1.3,-0.18,-2.2,0.0038
0.19,0.96,0.19,2.72,-0.69,-1.27,-17.29,-22.27,-19.34,1.3,-0.19,-2.21,0.004
0.18,0.95,0.2,2.82,-0.25,-1.08,-16.99,-22.85,-19.63,1.3,-0.18,-2.21,0.0042
0.18,0.96,0.18,2.57,-0.84,-0.92,-16.99,-22.85,-19.04,1.31,-0.18,-2.19,0.0045
0.17,0.96,0.19,3.01,1.27,0.16,-17.58,-22.27,-18.75,1.31,-0.17,-2.21,0.0047
0.18,0.96,0.2,3.43,0.76,0.28,-17.29,-22.85,-18.75,1.3,-0.18,-2.19,0.0049
0.18,0.95,0.2,3.42,-0.73,-0.14,-16.41,-22.56,-19.34,1.29,-0.19,-2.2,0.0051
0.18,0.96,0.19,2.96,-1.19,-0.15,-17.58,-22.85,-19.63,1.3,-0.19,-2.21,0.0053
0.18,0.96,0.19,3.08,-0.89,-0.29,-17.87,-23.14,-19.92,1.3,-0.18,-2.21,0.0055
0.18,0.95,0.19,2.69,0.87,0.59,-17.58,-23.44,-19.63,1.3,-0.18,-2.19,0.0057
0.19,0.96,0.2,2.19,-1.43,0.02,-16.7,-22.56,-18.16,1.29,-0.2,-2.17,0.0059
0.19,0.95,0.2,2.68,-0.78,-0.71,-16.7,-22.85,-19.04,1.29,-0.19,-2.19,0.0061
0.18,0.96,0.19,2.72,-0.92,-0.36,-16.7,-22.56,-19.63,1.31,-0.18,-2.21,0.0063
0.19,0.96,0.21,2.51,-1.92,-0.65,-17.58,-23.14,-19.63,1.29,-0.19,-2.2,0.0065
0.18,0.95,0.19,3.01,-0.03,-0.38,-17.29,-22.27,-18.46,1.31,-0.18,-2.2,0.0067
0.18,0.96,0.19,2.78,-0.74,-0.59,-17.29,-22.27,-19.92,1.31,-0.18,-2.22,0.0069
0.18,0.95,0.2,2.73,-0.11,-0.21,-16.99,-22.56,-19.04,1.29,-0.18,-2.2,0.0071
0.17,0.96,0.19,4.18,3.33,1.32,-17.29,-23.14,-19.92,1.31,-0.18,-2.21,0.0073
0.18,0.97,0.17,5.21,12.13,2.93,-16.7,-21.39,-19.34,1.32,-0.18,-2.22,0.0075
0.19,0.96,0.19,2.33,0.6,-0.53,-16.99,-22.85,-19.34,1.3,-0.19,-2.19,0.0077
0.18,0.96,0.19,2.01,0.63,0.02,-16.7,-22.27,-19.04,1.3,-0.19,-2.2,0.0079
0.19,0.96,0.19,1.72,-1.8,-0.84,-16.99,-23.14,-19.04,1.3,-0.19,-2.18,0.0081
0.18,0.95,0.2,2.49,-0.29,-0.38,-16.99,-22.85,-19.04,1.3,-0.18,-2.19,0.0083
0.18,0.96,0.2,1.91,-2.2,-1.0,-17.58,-22.85,-18.46,1.29,-0.19,-2.18,0.0287
0.18,0.96,0.19,2.49,-0.79,-0.53,-16.99,-22.56,-19.34,1.3,-0.18,-2.21,0.1024
0.19,0.96,0.2,2.23,-1.17,-0.76,-16.7,-22.56,-19.04,1.29,-0.19,-2.19,0.1761
0.18,0.95,0.2,2.5,1.21,-0.25,-16.11,-22.56,-18.46,1.3,-0.18,-2.18,0.2458
0.18,0.95,0.19,2.4,-1.2,-1.07,-15.82,-23.14,-19.34,1.3,-0.19,-2.18,0.3195
0.18,0.96,0.2,2.37,-1.03,-1.16,-16.7,-22.27,-19.34,1.3,-0.18,-2.21,0.3933
0.17,0.95,0.2,2.53,-1.18,-1.11,-16.7,-22.85,-19.92,1.3,-0.18,-2.21,0.467
0.18,0.95,0.2,3.21,-2.32,-1.23,-16.99,-22.56,-19.63,1.3,-0.18,-2.21,0.5407
0.18,0.95,0.2,3.27,-1.67,-1.09,-17.29,-22.85,-20.21,1.29,-0.18,-2.22,0.6144
0.18,0.95,0.2,3.33,-0.69,-0.5,-17.29,-22.56,-19.63,1.3,-0.18,-2.21,0.6842
0.18,0.96,0.2,3.33,-0.82,-0.47,-17.29,-22.27,-18.46,1.29,-0.19,-2.2,0.7579
0.18,0.95,0.2,3.02,-2.49,-0.55,-16.7,-22.85,-19.34,1.29,-0.18,-2.2,0.8315
0.18,0.96,0.19,3.2,-1.54,-0.51,-17.29,-22.85,-19.34,1.31,-0.18,-2.2,0.9053
0.18,0.95,0.19,3.13,-0.39,-0.31,-17.58,-22.27,-19.34,1.3,-0.19,-2.21,0.979
0.19,0.95,0.19,2.24,-3.71,-1.14,-17.29,-22.85,-19.34,1.3,-0.19,-2.19,1.0527
0.18,0.95,0.2,3.51,1.74,0.83,-16.7,-22.56,-19.04,1.3,-0.18,-2.2,1.1225
0.19,0.96,0.19,3.52,1.66,1.47,-16.99,-22.56,-18.75,1.3,-0.19,-2.19,1.1963
0.18,0.96,0.2,2.85,0.47,1.59,-16.99,-22.27,-18.75,1.3,-0.19,-2.2,1.2698
0.18,0.96,0.18,3.27,0.77,1.79,-16.7,-23.14,-18.75,1.31,-0.18,-2.17,1.3435
0.19,0.96,0.19,2.62,0.72,2.04,-16.99,-22.56,-19.04,1.3,-0.19,-2.19,1.4133
0.2,0.96,0.18,2.78,1.46,1.66,-16.99,-22.85,-19.34,1.3,-0.2,-2.19,1.4871
0.19,0.96,0.18,1.88,-0.8,1.05,-16.7,-22.85,-18.46,1.3,-0.2,-2.17,1.5607
0.2,0.96,0.19,1.79,-0.28,0.83,-17.58,-22.85,-19.34,1.29,-0.2,-2.19,1.6344
0.19,0.96,0.19,1.56,0.45,0.58,-16.7,-22.85,-19.04,1.29,-0.2,-2.18,1.7081
0.2,0.95,0.2,1.1,-1.54,0.34,-17.29,-22.85,-19.63,1.28,-0.2,-2.2,1.7818
0.2,0.95,0.2,1.23,-2.53,-0.18,-16.7,-22.85,-18.75,1.28,-0.2,-2.17,1.8516
0.19,0.96,0.2,1.83,-1.74,0.0,-16.41,-23.44,-19.04,1.28,-0.2,-2.17,1.9253
0.19,0.95,0.2,1.98,-0.02,0.6,-16.7,-23.14,-19.34,1.29,-0.2,-2.18,1.9991
0.19,0.95,0.21,2.15,2.46,1.63,-16.7,-22.56,-19.34,1.28,-0.2,-2.2,2.0727
0.21,0.95,0.21,1.69,0.89,0.67,-16.11,-23.73,-18.75,1.27,-0.21,-2.14,2.1464
0.2,0.95,0.2,2.05,1.79,0.97,-16.41,-22.56,-19.34,1.28,-0.2,-2.19,2.2161
0.2,0.95,0.21,1.68,0.79,0.91,-15.82,-23.73,-18.16,1.27,-0.21,-2.13,2.2899
0.21,0.95,0.21,1.95,0.7,1.21,-16.99,-23.44,-19.34,1.26,-0.21,-2.17,2.3635
0.21,0.95,0.2,1.94,-1.0,0.09,-16.7,-22.85,-18.75,1.27,-0.21,-2.17,2.4374
0.21,0.95,0.21,2.34,-0.76,-0.79,-16.99,-23.73,-19.04,1.26,-0.21,-2.16,2.5111
0.21,0.94,0.21,2.32,-1.75,-1.43,-16.11,-23.73,-18.46,1.26,-0.22,-2.14,2.5847
0.2,0.95,0.21,2.29,-1.94,-1.63,-16.7,-23.14,-18.16,1.27,-0.2,-2.16,2.6545
0.22,0.93,0.23,1.3,-6.21,-4.15,-15.82,-23.44,-19.04,1.25,-0.22,-2.15,2.7283
0.19,0.95,0.2,2.03,2.73,0.03,-16.41,-23.14,-18.75,1.29,-0.19,-2.17,2.8019
0.23,0.93,0.25,0.62,-4.35,0.31,-15.82,-22.56,-18.75,1.22,-0.23,-2.16,2.8756
0.19,0.95,0.21,3.45,10.56,3.54,-16.41,-23.44,-18.75,1.28,-0.2,-2.16,2.9493
0.21,0.94,0.22,3.21,6.05,5.1,-15.82,-23.44,-18.46,1.26,-0.21,-2.14,3.019
0.19,0.94,0.22,5.52,19.87,9.19,-16.41,-22.56,-18.75,1.27,-0.19,-2.19,3.0928
0.18,0.96,0.19,3.94,16.4,9.99,-15.82,-22.85,-19.34,1.3,-0.18,-2.19,3.1665
0.19,0.96,0.19,4.48,22.65,13.9,-15.53,-22.85,-18.75,1.29,-0.19,-2.17,3.2404
0.22,0.94,0.22,2.35,9.35,11.8,-16.11,-22.56,-18.75,1.25,-0.22,-2.17,3.3138
0.2,0.94,0.24,4.45,20.22,15.87,-15.53,-23.44,-18.46,1.25,-0.2,-2.15,3.3877
0.27,0.92,0.28,3.13,23.15,22.48,-16.11,-23.44,-18.16,1.17,-0.27,-2.11,3.4612
0.28,0.96,0.12,-0.72,13.73,14.66,-15.53,-23.44,-18.16,1.26,-0.28,-2.07,3.5311
0.2,0.94,0.26,1.98,13.04,9.26,-15.82,-23.14,-16.99,1.24,-0.2,-2.14,3.6049
0.28,0.92,0.24,-1.28,-27.64,-0.43,-15.23,-23.73,-17.87,1.19,-0.28,-2.08,3.6785
0.21,0.95,0.21,3.43,-0.34,11.11,-14.65,-23.44,-17.87,1.27,-0.21,-2.12,3.7522
0.32,0.9,0.24,1.84,8.3,9.03,-14.94,-23.44,-18.46,1.15,-0.33,-2.06,3.8258
0.3,0.93,0.23,-0.54,-7.56,3.88,-14.94,-24.9,-18.46,1.19,-0.3,-2.05,3.8957
0.31,0.92,0.24,3.22,5.23,3.07,-14.36,-23.44,-17.87,1.17,-0.31,-2.06,3.9694
0.32,0.9,0.27,1.82,-23.64,-5.46,-15.53,-24.32,-17.58,1.14,-0.33,-2.04,4.0432
0.25,0.94,0.22,5.51,-8.5,-0.97,-14.94,-23.73,-18.16,1.23,-0.25,-2.1,4.1168
0.3,0.93,0.22,4.3,-9.87,-0.14,-15.23,-24.32,-18.46,1.19,-0.3,-2.06,4.1905
0.3,0.93,0.21,2.66,-7.62,1.01,-14.06,-24.32,-18.46,1.19,-0.31,-2.04,4.2641
0.32,0.92,0.22,2.65,-7.23,-0.81,-14.36,-24.32,-18.46,1.18,-0.32,-2.04,4.334
0.32,0.93,0.21,2.09,-8.54,-1.72,-14.94,-24.32,-18.46,1.18,-0.33,-2.04,4.4077
0.32,0.93,0.22,2.85,-4.84,-1.34,-14.94,-23.73,-18.75,1.17,-0.32,-2.06,4.4814
0.31,0.93,0.22,1.67,-1.76,0.79,-14.65,-24.32,-19.04,1.18,-0.32,-2.05,4.5551
0.32,0.93,0.21,1.43,2.26,1.96,-14.36,-24.61,-17.87,1.19,-0.32,-2.02,4.6287
0.33,0.92,0.22,1.45,1.11,0.91,-14.94,-24.02,-17.29,1.16,-0.34,-2.02,4.6986
0.33,0.9,0.25,2.07,-2.73,-1.33,-14.65,-24.61,-17.87,1.14,-0.34,-2.02,4.7724
0.33,0.92,0.23,1.17,-10.06,-4.42,-14.94,-24.32,-17.87,1.16,-0.34,-2.03,4.846
0.32,0.91,0.22,2.03,-4.75,-2.63,-14.36,-24.02,-18.75,1.17,-0.33,-2.05,4.9196
0.31,0.92,0.23,2.82,-3.58,-2.17,-14.65,-24.9,-18.75,1.18,-0.32,-2.04,4.9933
0.31,0.92,0.23,2.69,-4.34,-2.01,-14.94,-24.61,-18.16,1.17,-0.32,-2.04,5.0671
0.34,0.92,0.24,2.69,-6.2,-5.06,-14.94,-24.61,-18.75,1.15,-0.34,-2.03,5.137
0.31,0.94,0.21,1.91,-7.96,0.37,-14.65,-24.32,-18.46,1.19,-0.31,-2.04,5.2105
0.33,0.92,0.22,2.89,-3.91,0.2,-15.23,-24.32,-19.04,1.17,-0.33,-2.05,5.2842
0.32,0.93,0.21,2.52,-0.79,4.49,-14.94,-24.61,-18.75,1.18,-0.32,-2.04,5.3579
0.31,0.93,0.21,4.13,13.63,10.15,-14.36,-25.2,-18.16,1.19,-0.31,-2.02,5.4316
0.33,0.93,0.2,3.15,11.79,10.02,-14.36,-24.61,-18.16,1.17,-0.34,-2.01,5.5014
0.31,0.93,0.2,5.47,19.43,14.3,-14.06,-24.61,-17.58,1.2,-0.31,-2.02,5.5752
0.3,0.94,0.17,7.83,32.85,20.84,-14.94,-24.9,-17.87,1.22,-0.3,-2.02,5.6488
0.28,0.98,0.02,15.07,45.33,30.77,-13.77,-24.9,-17.29,1.29,-0.28,-2.0,5.7226
0.29,1.01,-0.06,-3.75,6.95,32.84,-12.6,-25.49,-16.7,1.28,-0.28,-1.97,5.7962
0.14,1.14,0.09,-13.56,45.15,45.53,-11.72,-25.2,-14.65,1.43,-0.12,-2.03,5.8701
0.3,1.04,0.39,-0.37,35.66,36.33,-11.13,-25.49,-14.36,1.13,-0.27,-1.95,5.9436
0.16,0.96,0.44,51.39,118.86,17.75,-11.13,-25.2,-12.6,1.12,-0.15,-2.01,6.0134
0.4,0.84,0.34,100.93,50.78,-11.89,-12.6,-24.32,-12.89,1.01,-0.41,-1.87,6.0879
0.42,0.8,0.29,122.31,74.27,-15.09,-14.94,-24.61,-12.6,1.01,-0.46,-1.87,6.1609
0.45,0.86,0.13,103.75,29.13,-18.46,-16.11,-23.14,-13.18,1.08,-0.47,-1.89,6.2346
0.24,0.88,0.07,72.81,37.68,-2.87,-16.99,-22.85,-13.18,1.3,-0.27,-1.98,6.3083
0.33,0.9,-0.15,-0.82,-9.27,-0.05,-16.99,-22.85,-13.48,1.19,-0.34,-1.97,6.382
0.18,0.82,-0.05,-45.09,49.79,20.5,-17.29,-22.27,-12.89,1.35,-0.21,-2.01,6.4557
0.7,1.51,-0.73,-43.91,-11.0,-4.13,-16.99,-22.27,-12.89,0.98,-0.4,-2.02,6.5294
-0.1,0.96,0.0,3.88,165.36,1.15,-16.7,-21.68,-12.3,1.47,0.11,-2.24,6.5991
0.13,0.95,0.5,-20.19,65.47,-0.5,-16.11,-21.97,-11.72,1.07,-0.12,-2.16,6.6732
0.29,0.96,0.15,-19.26,1.46,-8.55,-16.7,-21.97,-11.43,1.24,-0.29,-1.95,6.7466
0.14,1.02,-0.04,-13.35,11.76,-3.22,-16.11,-21.39,-11.13,1.43,-0.14,-2.0,6.8202
0.21,0.98,0.07,-17.43,3.85,-0.85,-14.94,-21.09,-10.55,1.35,-0.21,-1.95,6.894
0.21,0.98,0.12,-11.67,20.45,1.31,-15.23,-21.39,-9.96,1.33,-0.21,-1.93,6.9638
0.42,0.92,0.21,-16.98,-13.93,-11.36,-15.23,-20.51,-10.25,1.1,-0.42,-1.9,7.0382
0.08,0.99,0.21,-2.41,7.93,-0.35,-14.94,-21.39,-9.67,1.35,-0.08,-2.04,7.1112
0.23,0.96,0.2,-1.17,12.6,-5.78,-15.23,-21.09,-9.67,1.27,-0.23,-1.95,7.1848
0.17,0.97,0.22,-2.02,5.0,-7.54,-14.94,-21.39,-9.96,1.29,-0.17,-1.99,7.2585
0.19,1.0,0.17,-20.67,-72.49,-10.94,-14.36,-22.27,-9.38,1.32,-0.19,-1.91,7.3323
0.11,0.97,0.16,0.92,27.44,4.75,-14.06,-22.56,-10.55,1.37,-0.11,-1.99,7.4021
0.23,0.94,0.2,23.28,87.4,24.1,-14.06,-22.27,-9.96,1.25,-0.24,-1.92,7.4757
0.21,1.01,0.2,16.85,90.24,4.11,-14.36,-21.97,-8.79,1.29,-0.2,-1.9,7.5494
0.23,0.91,0.25,-1.66,23.16,1.65,-13.77,-21.68,-10.25,1.22,-0.23,-1.95,7.6232
0.22,0.92,0.26,-9.2,-2.97,0.24,-13.48,-22.56,-8.79,1.21,-0.23,-1.89,7.693
0.25,0.94,0.17,-9.41,-14.66,-1.31,-14.06,-21.68,-9.08,1.26,-0.26,-1.88,7.7667
0.25,0.94,0.22,-13.12,-13.21,-2.33,-13.77,-22.27,-9.08,1.23,-0.25,-1.88,7.8404
0.26,0.92,0.26,-16.09,-16.52,-4.75,-13.48,-21.97,-8.79,1.2,-0.26,-1.88,7.914
0.35,0.94,0.32,-33.81,-84.98,-14.51,-12.3,-22.56,-8.79,1.1,-0.34,-1.82,7.9882
0.23,0.88,0.3,-24.87,-28.24,-1.68,-13.18,-23.44,-8.79,1.17,-0.24,-1.87,8.0615
0.26,0.94,0.25,-29.14,-27.11,-0.27,-11.72,-22.85,-8.5,1.2,-0.26,-1.83,8.1351
0.22,0.91,0.38,-34.81,-20.42,7.82,-10.84,-23.73,-8.79,1.12,-0.22,-1.87,8.2053
0.24,0.97,0.17,-22.33,15.24,22.49,-10.84,-23.73,-7.62,1.28,-0.24,-1.76,8.2786
0.35,0.81,0.35,-23.26,-13.37,9.41,-10.84,-24.02,-7.91,1.02,-0.38,-1.74,8.3523
0.25,0.81,0.21,13.28,-1.79,27.95,-10.84,-24.02,-7.03,1.19,-0.29,-1.73,8.426
0.41,0.79,0.29,-50.92,-90.03,8.8,-9.96,-26.07,-5.57,1.0,-0.45,-1.57,8.4997
0.38,0.89,0.48,-34.83,-27.01,12.83,-8.79,-25.78,-5.27,0.97,-0.36,-1.63,8.5734
0.5,0.7,0.62,-16.49,-20.01,4.43,-9.08,-26.37,-4.98,0.72,-0.49,-1.63,8.6432
0.47,0.56,0.68,-2.78,-3.81,-14.28,-9.38,-26.66,-4.1,0.6,-0.49,-1.68,8.7169
0.5,0.66,0.56,35.15,-23.16,-28.43,-10.55,-27.83,-4.1,0.72,-0.53,-1.61,8.7907
0.42,0.74,0.52,70.92,-1.17,-19.1,-12.01,-26.95,-4.69,0.84,-0.43,-1.68,8.8643
0.37,0.76,0.5,88.05,2.47,-22.51,-15.23,-26.66,-5.57,0.88,-0.38,-1.79,8.938
0.38,0.74,0.4,99.27,14.55,-24.07,-17.58,-25.78,-6.15,0.93,-0.42,-1.82,9.0079
0.36,0.8,0.39,107.06,35.66,-19.37,-19.34,-24.32,-7.91,0.99,-0.38,-1.92,9.0816
0.39,0.73,0.32,99.71,33.13,-12.4,-22.56,-23.73,-10.25,0.96,-0.46,-2.0,9.1554
0.37,0.88,0.22,81.25,4.85,-16.49,-23.14,-22.56,-11.43,1.11,-0.39,-2.01,9.2289
0.3,1.11,-0.04,45.5,-65.48,-31.33,-24.02,-22.85,-13.18,1.31,-0.26,-2.04,9.3028
0.17,0.96,-0.17,7.74,21.04,-2.34,-23.73,-22.56,-12.89,1.33,-0.17,-2.1,9.3764
0.24,0.89,-0.02,-21.52,28.88,10.33,-24.02,-22.85,-12.01,1.3,-0.27,-2.01,9.45
0.28,1.07,0.06,-11.67,2.4,-1.68,-24.61,-23.44,-12.6,1.31,-0.25,-2.02,9.5198
0.2,1.15,-0.37,-17.31,-1.04,5.87,-23.44,-22.85,-11.72,1.22,-0.17,-2.13,9.5937
0.22,1.0,-0.18,-20.51,1.29,-0.4,-23.73,-22.27,-12.01,1.3,-0.21,-2.07,9.6673
0.28,1.03,-0.07,-19.01,35.22,6.71,-22.56,-21.68,-10.84,1.3,-0.27,-1.99,9.7411
0.24,0.97,0.15,-15.85,35.96,3.34,-22.27,-21.39,-10.55,1.28,-0.24,-2.02,9.8146
0.26,0.98,0.14,-16.4,21.84,2.48,-23.44,-20.8,-10.84,1.28,-0.25,-2.05,9.8884
0.26,1.0,0.04,-19.32,7.0,-3.46,-22.85,-21.39,-9.08,1.31,-0.26,-1.95,9.9583
0.25,0.98,0.14,-13.96,3.43,-3.75,-22.56,-20.51,-9.67,1.28,-0.25,-2.01,10.0319
0.18,0.95,0.23,-11.01,7.47,0.01,-22.27,-21.09,-9.67,1.28,-0.18,-2.06,10.1056
0.19,0.98,0.14,-10.14,6.29,-0.71,-22.56,-21.09,-9.08,1.33,-0.19,-1.99,10.1792
0.32,0.93,0.22,-11.83,-8.95,-4.17,-22.27,-20.8,-9.08,1.18,-0.32,-2.01,10.2529
0.19,0.97,0.24,-12.03,-25.2,-7.14,-21.39,-20.8,-7.62,1.27,-0.19,-1.99,10.3267
0.23,0.95,0.2,-7.93,-6.49,0.09,-21.39,-21.09,-7.62,1.26,-0.23,-1.95,10.3964
0.23,0.95,0.2,-7.55,-11.73,-0.69,-21.09,-21.39,-7.91,1.26,-0.23,-1.95,10.4703
0.23,0.96,0.2,-8.53,-6.84,1.43,-20.51,-21.09,-8.2,1.26,-0.23,-1.96,10.5438
0.24,0.93,0.21,-9.26,-5.74,2.15,-20.21,-21.68,-8.79,1.24,-0.25,-1.96,10.6174
0.2,0.94,0.19,-8.75,17.66,7.96,-21.39,-21.68,-8.2,1.28,-0.21,-1.96,10.6881
0.25,0.95,0.19,-14.32,0.66,5.46,-20.8,-21.97,-7.62,1.26,-0.25,-1.91,10.7611
0.25,0.93,0.2,-21.96,-9.36,1.38,-19.92,-22.27,-7.03,1.24,-0.26,-1.89,10.8348
0.13,0.92,0.33,-27.21,-15.95,4.2,-19.04,-22.27,-7.32,1.2,-0.13,-2.01,10.9085
0.22,1.0,0.27,-20.26,11.41,18.78,-19.04,-22.56,-5.86,1.24,-0.21,-1.87,10.9821
0.39,0.95,0.3,-24.57,-15.99,4.93,-18.75,-21.97,-7.03,1.1,-0.37,-1.88,11.0559
0.29,0.82,0.29,-24.79,-10.03,11.64,-18.46,-22.56,-5.57,1.11,-0.32,-1.85,11.1295
0.33,0.78,0.39,-25.57,-15.69,12.78,-17.29,-22.56,-5.27,0.99,-0.37,-1.86,11.1993
0.46,0.78,0.08,69.29,63.44,-23.9,-18.16,-22.56,-5.27,1.03,-0.53,-1.73,11.273
0.36,0.93,0.15,-44.26,-35.28,1.54,-16.41,-22.56,-4.39,1.17,-0.37,-1.69,11.3467
0.46,0.91,0.37,-26.85,-55.78,0.32,-16.99,-24.02,-3.52,0.99,-0.44,-1.72,11.422
0.43,0.79,0.54,-13.91,-55.29,-11.02,-16.7,-24.32,-4.39,0.85,-0.43,-1.84,11.4941
0.47,0.74,0.65,21.9,3.62,-19.44,-17.58,-24.02,-4.39,0.74,-0.44,-1.92,11.5639
0.36,0.78,0.57,85.3,17.72,-28.78,-19.04,-22.27,-5.57,0.86,-0.35,-2.0,11.6378
0.43,0.76,0.49,130.02,12.7,-37.83,-20.21,-21.68,-7.32,0.87,-0.44,-2.03,11.7113
0.45,0.79,0.41,149.3,11.09,-44.84,-22.56,-20.21,-11.72,0.91,-0.47,-2.14,11.785
0.36,0.77,0.31,131.49,24.78,-28.06,-24.02,-19.04,-14.36,1.02,-0.41,-2.21,11.8587
0.29,0.93,0.17,107.76,-39.12,-37.74,-24.61,-17.87,-16.7,1.23,-0.3,-2.27,11.9324
0.29,0.94,-0.36,71.89,18.91,-30.96,-25.2,-16.99,-18.75,1.11,-0.28,-2.39,12.0062
0.21,0.91,-0.34,-1.98,-16.43,-4.23,-25.78,-16.7,-18.75,1.16,-0.21,-2.44,12.0759
0.28,0.87,-0.06,-21.66,-5.13,16.62,-25.49,-17.87,-17.58,1.26,-0.31,-2.27,12.1497
0.27,0.96,-0.09,-31.62,30.63,26.69,-25.2,-18.46,-17.29,1.28,-0.28,-2.26,12.2235
0.25,1.02,-0.08,-44.41,22.09,22.19,-24.9,-17.29,-16.7,1.32,-0.24,-2.28,12.297
0.24,1.08,-0.17,-47.36,24.99,15.19,-24.9,-18.16,-15.82,1.31,-0.21,-2.27,12.3708
0.06,1.21,-0.83,-16.08,9.73,-1.47,-24.32,-17.58,-15.53,0.97,-0.04,-2.53,12.4445
0.18,1.06,-0.11,-18.84,7.76,0.66,-24.61,-18.16,-15.23,1.38,-0.17,-2.25,12.5143
0.29,0.99,0.02,-17.42,42.28,11.9,-24.02,-18.16,-14.65,1.29,-0.28,-2.19,12.588
0.31,1.0,0.06,-28.73,23.11,0.4,-23.14,-17.29,-14.65,1.27,-0.3,-2.21,12.6617
0.27,1.01,-0.0,-28.94,-3.56,-5.49,-23.44,-17.29,-13.77,1.31,-0.26,-2.2,12.7353
0.14,0.97,0.12,-19.17,45.95,6.47,-22.27,-16.7,-13.48,1.38,-0.14,-2.25,12.809
0.15,0.97,0.16,-16.1,28.72,4.43,-22.56,-16.41,-12.3,1.35,-0.15,-2.25,12.8827
0.26,0.95,0.27,-9.24,34.84,-1.25,-21.97,-16.99,-13.18,1.19,-0.26,-2.25,12.9525
0.24,0.95,0.32,-10.03,2.49,2.28,-22.27,-16.41,-12.6,1.18,-0.23,-2.29,13.0262
0.29,0.93,0.3,-9.93,-11.93,-2.19,-21.09,-16.11,-12.3,1.15,-0.29,-2.25,13.0999
0.26,0.94,0.19,-9.59,-16.08,-2.02,-21.68,-17.29,-12.01,1.24,-0.26,-2.18,13.1737
0.23,0.94,0.2,-10.33,-22.72,-3.67,-21.39,-17.29,-12.01,1.26,-0.24,-2.18,13.2473
0.21,0.95,0.22,-8.94,-8.16,-0.89,-21.09,-16.99,-12.89,1.26,-0.22,-2.23,13.3211
0.26,0.94,0.17,-17.01,-21.53,-1.8,-21.39,-17.58,-11.72,1.25,-0.27,-2.15,13.3947
0.24,0.93,0.16,-22.61,-23.34,-0.19,-19.92,-17.87,-11.43,1.27,-0.25,-2.12,13.4646
0.25,0.91,0.27,-23.71,-6.32,5.46,-19.63,-17.58,-11.13,1.19,-0.26,-2.16,13.5386
0.2,0.98,0.24,-30.08,-11.49,8.88,-19.34,-18.46,-11.13,1.26,-0.19,-2.14,13.612
0.31,0.94,0.32,-22.56,-1.42,18.33,-18.75,-18.46,-10.25,1.13,-0.3,-2.09,13.6857
0.37,0.9,0.34,-25.29,-11.78,11.54,-18.16,-18.75,-10.25,1.06,-0.37,-2.06,13.7595
0.3,0.82,0.36,-24.51,-4.02,10.57,-17.58,-20.21,-8.5,1.05,-0.32,-2.01,13.8291
0.32,0.8,0.3,-19.19,14.53,16.87,-16.99,-19.04,-9.08,1.06,-0.36,-2.01,13.9028
0.35,0.83,0.18,7.29,0.94,40.69,-16.11,-19.04,-9.08,1.13,-0.39,-1.93,13.9765
0.52,0.95,0.08,-36.66,-89.52,-4.57,-15.23,-19.04,-8.5,1.06,-0.5,-1.85,14.0502
0.49,0.95,0.48,-27.93,-75.54,-10.43,-14.36,-21.39,-7.91,0.94,-0.43,-1.87,14.1241
0.48,0.75,0.73,0.47,-28.17,-10.64,-12.89,-21.97,-8.5,0.71,-0.43,-1.93,14.1976
0.45,0.66,0.6,71.94,5.71,-28.27,-12.89,-21.39,-7.91,0.72,-0.47,-1.91,14.2673
0.44,0.61,0.54,126.85,18.5,-31.63,-13.77,-20.8,-9.08,0.72,-0.5,-1.95,14.3413
0.52,0.74,0.41,137.05,3.39,-43.97,-15.82,-21.09,-10.25,0.84,-0.55,-1.93,14.4148
0.44,0.85,0.31,80.51,-36.0,-59.72,-16.99,-20.21,-10.84,1.01,-0.45,-1.98,14.4886
0.24,1.0,0.07,97.91,-29.75,-50.23,-18.16,-19.63,-12.89,1.32,-0.24,-2.07,14.5623
0.25,0.96,-0.2,43.99,-0.51,-28.14,-19.34,-19.34,-12.89,1.25,-0.25,-2.12,14.6359
0.23,0.89,-0.12,4.66,31.73,1.52,-19.92,-19.34,-12.89,1.28,-0.25,-2.1,14.7057
0.29,0.89,-0.06,-28.16,19.78,12.38,-18.46,-17.87,-11.43,1.25,-0.31,-2.06,14.7794
0.3,0.95,-0.08,-41.79,24.38,15.14,-18.16,-18.16,-11.13,1.25,-0.31,-2.04,14.8532
0.18,1.17,-0.54,-16.66,-3.85,-4.44,-17.58,-18.75,-10.84,1.12,-0.14,-2.21,14.9268
0.17,1.11,-0.06,-24.13,25.7,6.49,-17.58,-18.46,-10.25,1.41,-0.15,-2.04,15.0005
0.33,1.0,0.09,-21.35,44.25,10.75,-17.29,-18.75,-9.67,1.24,-0.32,-1.97,15.0743
0.26,0.99,0.08,-26.57,14.14,1.72,-15.53,-18.46,-9.67,1.31,-0.25,-1.97,15.1441
0.28,0.96,0.06,-19.63,11.38,-0.96,-15.53,-18.46,-8.79,1.28,-0.28,-1.93,15.2178
0.2,0.97,0.19,-13.57,6.52,-2.03,-14.65,-18.16,-8.5,1.3,-0.2,-1.98,15.2915
0.15,0.98,0.2,-11.26,4.26,-1.55,-14.36,-17.87,-8.79,1.32,-0.15,-2.03,15.3651
0.49,0.94,0.22,-19.02,-44.33,-13.01,-14.36,-19.34,-7.91,1.05,-0.47,-1.84,15.4389
0.18,0.94,0.24,-5.85,10.68,-1.22,-14.94,-19.34,-8.5,1.27,-0.18,-1.99,15.5125
0.22,1.01,0.07,-10.11,-17.4,-5.54,-13.77,-19.63,-8.2,1.35,-0.21,-1.89,15.5823
0.11,1.0,0.08,-9.9,-2.82,2.62,-14.36,-19.92,-7.91,1.44,-0.1,-1.93,15.6561
0.22,0.95,0.24,-12.67,-4.05,4.11,-13.18,-19.34,-7.62,1.24,-0.22,-1.91,15.7297
0.31,0.92,0.25,-12.55,-2.51,4.74,-13.48,-19.92,-7.91,1.16,-0.31,-1.87,15.8036
0.31,0.95,0.2,-14.78,-10.48,2.41,-12.6,-19.63,-7.03,1.2,-0.31,-1.82,15.8771
0.28,0.93,0.23,-18.38,-13.95,1.55,-11.72,-20.21,-7.91,1.2,-0.28,-1.84,15.9508
0.2,0.92,0.2,-24.11,-11.56,5.17,-11.72,-21.09,-7.03,1.27,-0.21,-1.83,16.0206
0.28,0.91,0.34,-25.74,-8.22,10.23,-10.84,-20.8,-7.03,1.12,-0.28,-1.82,16.0944
0.28,0.93,0.33,-26.0,-6.51,15.94,-10.25,-20.8,-5.86,1.14,-0.27,-1.77,16.168
0.3,0.9,0.28,-22.38,9.89,20.52,-9.38,-21.68,-5.27,1.14,-0.31,-1.68,16.2417
0.31,0.91,0.31,-20.27,20.72,25.81,-8.79,-20.8,-4.1,1.12,-0.31,-1.65,16.3154
0.36,0.86,0.15,-0.85,6.55,51.86,-7.91,-20.21,-3.52,1.14,-0.39,-1.53,16.3852
0.67,0.73,0.7,-36.19,-71.85,0.08,-7.03,-21.09,-1.76,0.64,-0.59,-1.54,16.4589
0.42,0.99,0.38,-31.41,-70.63,7.26,-6.15,-24.32,0.0,1.05,-0.38,-1.37,16.5326
0.41,0.74,0.72,-4.5,-17.43,2.08,-7.03,-25.78,2.05,0.73,-0.38,-1.47,16.6064
0.5,0.64,0.57,59.93,22.05,-17.66,-9.08,-25.49,2.64,0.7,-0.53,-1.44,16.68
0.41,0.73,0.51,110.43,32.22,-20.74,-13.18,-24.02,2.93,0.83,-0.43,-1.54,16.7537
0.5,0.77,0.37,130.9,16.91,-31.23,-17.58,-22.56,1.46,0.89,-0.53,-1.64,16.8236
0.44,0.8,0.31,117.84,21.16,-26.77,-22.56,-21.97,-0.59,0.98,-0.47,-1.8,16.8972
0.39,0.95,0.19,104.61,-54.8,-60.0,-24.9,-21.97,-2.64,1.14,-0.38,-1.81,16.9711
0.3,0.96,-0.15,66.06,-62.34,-47.94,-26.95,-21.97,-5.57,1.23,-0.3,-1.9,17.0446
0.2,0.92,-0.18,19.85,-18.41,-19.65,-27.83,-22.27,-6.15,1.28,-0.21,-1.95,17.1183
0.27,0.88,-0.08,-8.85,69.63,19.45,-27.83,-20.8,-5.57,1.26,-0.29,-1.92,17.1921
0.26,0.87,0.01,-39.96,50.69,24.54,-27.83,-21.09,-4.1,1.28,-0.29,-1.84,17.2618
0.4,1.04,0.04,-41.08,-29.42,-7.86,-26.37,-21.68,-4.39,1.2,-0.37,-1.84,17.3355
0.09,1.22,-0.42,-18.09,9.24,7.88,-26.66,-21.39,-2.93,1.23,-0.07,-2.01,17.4093
0.12,1.09,-0.11,-22.4,49.1,7.74,-26.66,-20.51,-2.64,1.42,-0.11,-1.77,17.4829
0.35,0.95,0.07,-38.37,-15.81,-2.01,-25.78,-21.09,-1.46,1.21,-0.35,-1.74,17.5566
0.3,0.95,0.19,-24.54,23.28,3.75,-25.78,-20.21,-1.17,1.21,-0.3,-1.8,17.6303
0.22,0.99,0.09,-22.82,-10.94,-0.4,-24.61,-20.21,-1.17,1.33,-0.22,-1.7,17.7001
0.26,1.0,0.05,-15.28,10.42,1.72,-24.61,-20.51,-0.88,1.31,-0.25,-1.68,17.7739
0.31,0.92,0.28,-18.36,-10.67,-1.76,-24.02,-19.63,0.59,1.14,-0.31,-1.78,17.8475
0.16,0.94,0.25,-10.91,10.45,3.72,-23.44,-19.63,0.0,1.27,-0.17,-1.77,17.9212
0.24,0.96,0.19,-10.25,-6.21,-0.74,-23.73,-19.63,1.17,1.26,-0.24,-1.66,17.9948
0.24,0.92,0.22,-7.89,9.36,2.13,-24.02,-19.92,0.0,1.23,-0.25,-1.75,18.0646
0.24,0.94,0.22,-9.83,-7.92,-1.13,-23.44,-19.92,0.88,1.23,-0.25,-1.69,18.1385
0.28,0.93,0.22,-9.04,-2.21,-0.18,-23.73,-19.92,0.59,1.2,-0.29,-1.72,18.2121
0.25,0.9,0.32,-9.66,-3.4,0.11,-22.85,-20.21,1.46,1.15,-0.26,-1.75,18.2856
0.28,0.91,0.29,-16.08,-21.55,-4.42,-22.56,-20.8,1.17,1.15,-0.28,-1.71,18.3595
0.16,0.92,0.24,-19.32,-8.05,0.62,-21.39,-21.39,2.64,1.27,-0.16,-1.6,18.4292
0.25,0.91,0.21,-24.23,-35.6,1.46,-21.39,-22.27,2.34,1.23,-0.26,-1.56,18.503
0.27,0.88,0.31,-27.16,-19.26,3.7,-20.51,-23.14,3.22,1.14,-0.28,-1.57,18.5767
0.22,0.91,0.36,-29.59,-9.7,17.17,-20.51,-23.44,3.52,1.14,-0.22,-1.61,18.6503
0.31,0.93,0.32,-29.97,-7.52,23.06,-19.04,-23.44,4.39,1.12,-0.31,-1.48,18.7242
0.34,0.91,0.2,-27.07,-5.28,25.58,-18.75,-23.44,4.69,1.16,-0.35,-1.38,18.7978
0.33,0.85,0.06,16.74,26.38,59.3,-19.04,-22.85,4.98,1.2,-0.37,-1.32,18.8675
0.55,0.97,0.06,-50.18,-98.64,4.33,-19.63,-25.49,5.86,1.06,-0.51,-1.29,18.9413
0.44,0.93,0.58,-23.67,-55.33,5.0,-19.92,-27.54,4.98,0.91,-0.38,-1.59,19.0149
0.44,0.71,0.77,4.14,-7.83,-4.95,-21.09,-25.49,2.93,0.68,-0.4,-1.94,19.0886
0.52,0.54,0.61,70.62,18.66,-29.36,-23.14,-23.73,1.17,0.59,-0.57,-2.11,19.1623
0.45,0.64,0.54,115.3,-7.49,-41.2,-26.37,-22.85,-2.93,0.74,-0.5,-2.15,19.2363
0.47,0.69,0.44,129.67,9.81,-45.59,-29.3,-20.8,-7.91,0.82,-0.52,-2.24,19.3059
0.47,0.8,0.31,85.28,18.61,-55.87,-29.88,-17.87,-10.55,0.96,-0.5,-2.28,19.3795
0.39,0.98,0.09,104.61,-29.44,-49.26,-31.93,-15.53,-14.06,1.18,-0.38,-2.34,19.4533
0.26,0.99,-0.2,41.7,-12.7,-28.1,-31.64,-14.94,-16.11,1.25,-0.25,-2.43,19.527
0.25,0.9,-0.19,-15.75,4.15,0.3,-31.35,-14.94,-15.53,1.23,-0.27,-2.42,19.6006
0.26,0.85,0.09,-42.45,26.12,20.71,-31.05,-14.94,-15.23,1.25,-0.3,-2.37,19.6744
0.23,1.26,0.04,1.62,23.6,1.46,-31.35,-14.36,-15.53,1.39,-0.18,-2.39,19.7441
0.35,0.99,-0.12,-22.87,44.28,15.17,-29.88,-13.77,-14.94,1.21,-0.34,-2.39,19.818
0.5,0.98,0.12,-34.75,-3.29,3.0,-29.88,-13.48,-16.11,1.09,-0.47,-2.4,19.8917
0.28,0.93,0.25,-30.64,19.45,4.18,-29.59,-14.06,-15.23,1.19,-0.29,-2.44,19.9652
0.42,0.93,0.15,-27.06,-9.35,-3.62,-28.71,-13.48,-14.06,1.12,-0.42,-2.38,20.0391
0.23,0.97,0.19,-14.87,11.15,-1.78,-29.0,-13.77,-14.06,1.27,-0.23,-2.41,20.1127
0.2,0.99,0.1,-15.49,-9.63,-1.08,-28.71,-13.77,-13.48,1.35,-0.2,-2.37,20.1863
0.32,0.94,0.21,-19.54,-35.77,-8.21,-27.54,-14.36,-12.6,1.19,-0.32,-2.35,20.2563
0.25,0.91,0.24,-8.15,-4.53,0.41,-28.42,-14.65,-12.3,1.21,-0.25,-2.37,20.3298
0.22,0.93,0.27,-2.81,16.08,4.23,-27.25,-14.06,-12.3,1.21,-0.23,-2.4,20.4036
0.29,0.91,0.29,-8.69,-8.56,1.11,-27.25,-14.36,-12.3,1.15,-0.29,-2.38,20.4772
0.29,0.91,0.23,-16.23,-31.61,-2.99,-27.54,-14.36,-12.6,1.18,-0.3,-2.36,20.5509
0.26,0.94,0.22,-17.93,-28.14,-1.74,-26.66,-14.94,-12.3,1.23,-0.26,-2.33,20.6247
0.26,0.95,0.14,-23.37,-38.78,-0.82,-26.66,-14.94,-11.43,1.26,-0.27,-2.27,20.6945
0.25,0.9,0.29,-22.6,-9.67,10.44,-25.78,-14.94,-10.55,1.16,-0.26,-2.32,20.7682
0.25,0.94,0.28,-23.76,-12.66,16.75,-24.9,-16.11,-10.55,1.19,-0.25,-2.26,20.8419
0.41,0.96,0.27,-21.06,-23.09,21.67,-25.49,-16.99,-9.08,1.1,-0.39,-2.18,20.9156
0.35,0.85,0.3,-17.49,1.26,27.11,-25.2,-17.29,-9.96,1.07,-0.37,-2.21,20.9893
0.35,0.82,0.26,-15.46,9.54,33.42,-24.02,-17.58,-8.79,1.08,-0.39,-2.14,21.0591
0.42,0.88,0.19,11.31,10.16,38.53,-23.44,-17.58,-10.25,1.09,-0.43,-2.12,21.1327
0.58,1.03,0.03,-35.08,-74.12,-2.08,-22.56,-17.87,-9.67,1.06,-0.51,-2.06,21.2066
0.46,0.92,0.55,-22.87,-47.2,-3.39,-21.68,-19.63,-10.25,0.91,-0.4,-2.16,21.2801
0.56,0.71,0.68,31.36,4.55,-21.3,-19.92,-16.99,-10.25,0.68,-0.52,-2.24,21.354
0.59,0.59,0.56,101.55,26.98,-35.58,-20.51,-16.99,-13.18,0.63,-0.63,-2.24,21.4276
0.58,0.66,0.44,121.09,5.87,-46.83,-21.09,-15.53,-15.53,0.74,-0.63,-2.26,21.5013
0.51,0.75,0.29,48.04,-41.73,-45.33,-20.8,-14.65,-16.7,0.9,-0.57,-2.26,21.5711
0.43,0.91,0.33,89.73,-12.2,-72.27,-20.8,-13.77,-16.99,1.03,-0.42,-2.35,21.6448
0.32,1.02,-0.12,63.6,10.66,-44.46,-20.51,-13.48,-19.04,1.25,-0.3,-2.39,21.7184
0.22,0.95,-0.19,3.38,22.92,-13.73,-19.63,-12.3,-17.58,1.27,-0.23,-2.46,21.7922
0.41,0.84,-0.03,-42.09,-23.34,-3.63,-19.34,-13.18,-16.99,1.12,-0.45,-2.29,21.8658
0.35,0.86,0.15,-45.63,22.19,20.63,-19.34,-13.18,-17.58,1.15,-0.38,-2.34,21.9396
0.13,1.57,-0.02,1.16,-62.33,-19.55,-19.04,-13.77,-17.29,1.49,-0.08,-2.43,22.0132
0.48,0.93,0.01,-15.28,47.04,13.57,-19.04,-13.77,-16.99,1.09,-0.48,-2.26,22.0831
0.16,0.99,0.1,-19.21,-11.54,-1.75,-19.04,-13.18,-16.99,1.38,-0.16,-2.42,22.1569
0.13,1.0,0.06,-13.71,40.27,15.22,-18.16,-13.48,-16.11,1.43,-0.13,-2.39,22.2305
0.36,0.97,0.06,-19.5,-9.0,-0.49,-17.29,-13.48,-17.29,1.21,-0.36,-2.31,22.3042
0.29,0.95,0.19,-16.97,-5.23,-3.01,-17.29,-13.48,-15.53,1.22,-0.3,-2.32,22.3779
0.3,0.94,0.28,-10.08,-5.72,-8.7,-17.58,-14.36,-16.11,1.16,-0.29,-2.33,22.4477
0.26,0.93,0.25,-11.45,-25.42,-15.42,-16.7,-14.36,-15.53,1.2,-0.27,-2.31,22.5218
0.26,0.96,0.22,-10.93,-61.08,-23.92,-16.99,-14.36,-14.65,1.23,-0.26,-2.29,22.5951
0.25,0.96,0.2,-6.56,-59.75,-21.44,-15.82,-14.94,-14.94,1.25,-0.25,-2.27,22.6688
0.18,0.97,0.19,-5.65,-52.57,-15.56,-15.82,-15.23,-14.94,1.31,-0.18,-2.3,22.7426
0.31,0.96,0.17,-7.13,-58.59,-15.6,-15.53,-16.11,-13.48,1.22,-0.31,-2.15,22.8162
0.28,0.95,0.2,-8.91,-62.0,-12.4,-16.41,-16.7,-12.6,1.23,-0.28,-2.14,22.8901
0.26,0.96,0.22,-8.93,-61.54,-9.29,-15.82,-17.29,-13.18,1.23,-0.26,-2.15,22.9598
0.41,0.9,0.23,-8.74,-58.44,-8.06,-14.94,-17.87,-13.18,1.09,-0.41,-2.05,23.0334
0.35,0.95,0.2,-9.45,-66.32,-16.67,-14.65,-19.04,-12.3,1.17,-0.35,-2.01,23.1072
0.3,0.91,0.18,1.8,-40.28,-8.8,-14.94,-19.34,-12.6,1.2,-0.32,-2.03,23.1808
0.41,0.91,0.17,0.43,-28.92,-4.21,-15.23,-19.92,-11.72,1.12,-0.42,-1.95,23.2545
0.34,0.96,0.19,-7.18,-46.39,-33.74,-14.65,-20.21,-12.3,1.19,-0.34,-1.98,23.3283
0.33,0.88,0.24,-10.44,-82.5,-68.09,-14.36,-21.39,-12.89,1.14,-0.34,-1.98,23.3981
0.32,0.94,0.17,-1.9,-55.29,-40.41,-14.36,-21.97,-12.3,1.2,-0.32,-1.94,23.4718
0.43,1.01,-0.01,2.74,-27.0,-7.89,-13.77,-21.09,-12.01,1.17,-0.4,-1.89,23.5454
0.25,0.92,0.17,2.88,-14.48,-10.73,-14.65,-21.68,-12.3,1.26,-0.26,-1.98,23.6191
0.45,0.94,0.11,1.24,-17.85,4.6,-14.65,-22.56,-12.89,1.11,-0.45,-1.88,23.6928
0.35,1.01,0.16,5.3,0.53,-0.95,-14.36,-21.97,-12.6,1.21,-0.33,-1.94,23.7626
0.3,0.95,0.14,-0.63,-8.22,-0.69,-14.65,-22.56,-12.01,1.24,-0.3,-1.93,23.8363
0.33,0.99,0.11,4.83,12.02,0.43,-13.77,-23.14,-12.6,1.23,-0.32,-1.9,23.9099
0.33,0.95,0.14,-1.34,-11.39,-0.61,-14.36,-22.56,-12.3,1.21,-0.33,-1.91,23.9838
0.33,0.95,0.14,-0.2,-4.17,0.38,-14.65,-22.85,-13.18,1.21,-0.33,-1.94,24.0575
0.35,0.96,0.15,1.91,2.38,1.01,-14.36,-21.97,-12.3,1.19,-0.35,-1.92,24.1271
0.35,0.95,0.15,4.32,5.71,-0.71,-14.36,-23.14,-12.6,1.19,-0.35,-1.9,24.2008
0.34,0.95,0.16,5.52,10.78,0.38,-13.48,-22.27,-12.3,1.2,-0.33,-1.91,24.2748
0.34,0.95,0.14,-1.37,-9.05,-0.76,-14.94,-22.85,-12.89,1.2,-0.34,-1.93,24.3482
0.35,0.95,0.17,2.97,1.96,-0.64,-14.65,-22.56,-12.3,1.18,-0.34,-1.92,24.422
0.35,0.95,0.15,2.6,-0.97,-0.91,-13.77,-22.27,-13.18,1.19,-0.35,-1.93,24.4956
0.34,0.95,0.16,1.92,-2.98,-0.5,-14.06,-22.56,-12.89,1.2,-0.34,-1.93,24.5654
0.35,0.95,0.17,2.49,-1.42,0.04,-14.06,-22.56,-12.3,1.19,-0.35,-1.91,24.6391
0.34,0.95,0.15,3.01,1.53,0.19,-14.65,-22.27,-12.01,1.2,-0.34,-1.91,24.7128
0.35,0.95,0.16,2.62,-0.84,0.08,-13.77,-21.97,-12.3,1.19,-0.35,-1.92,24.7868
0.34,0.96,0.16,2.23,-3.11,-0.66,-14.65,-22.85,-12.6,1.2,-0.34,-1.92,24.8603
0.35,0.95,0.17,2.73,-3.4,0.18,-14.65,-21.97,-12.89,1.18,-0.35,-1.94,24.9301
0.35,0.98,0.11,4.68,-2.67,-0.21,-14.36,-22.85,-12.3,1.22,-0.34,-1.9,25.0037
0.37,0.97,0.22,9.52,-19.07,-7.32,-14.65,-23.14,-12.3,1.16,-0.35,-1.91,25.0774
0.37,0.91,0.24,16.73,-30.61,-12.72,-14.94,-23.14,-12.6,1.12,-0.38,-1.92,25.1512
0.43,0.94,0.16,5.85,-66.93,-41.4,-14.65,-22.85,-12.6,1.12,-0.42,-1.88,25.2249
0.97,0.82,0.2,-33.52,-250.0,-91.88,-14.94,-24.61,-13.18,0.7,-0.85,-1.77,25.2986
0.24,0.91,0.2,-30.69,-198.87,-87.86,-15.53,-27.25,-13.48,1.24,-0.25,-1.92,25.3723
-0.08,0.81,0.1,-19.0,-145.36,-58.38,-16.41,-27.83,-14.36,1.42,0.1,-2.2,25.446
0.03,1.08,-0.04,6.39,-16.02,-9.83,-16.11,-27.83,-15.53,1.53,-0.03,-2.07,25.5157
0.3,0.95,0.06,-2.12,10.33,-5.11,-16.7,-27.54,-15.23,1.26,-0.3,-1.92,25.5895
0.28,1.04,0.06,-0.59,-4.04,-17.9,-16.41,-27.25,-14.36,1.3,-0.26,-1.92,25.6632
0.18,0.98,0.17,3.36,-12.78,-16.06,-16.41,-27.25,-14.94,1.32,-0.18,-2.0,25.7371
0.24,0.99,0.06,1.43,-33.98,-16.69,-16.7,-27.25,-15.23,1.32,-0.24,-1.95,25.8105
0.21,1.0,0.08,-2.52,-25.86,-10.6,-17.29,-27.83,-16.11,1.35,-0.2,-1.99,25.8842
0.22,0.99,0.07,-2.82,-33.74,-12.79,-16.7,-27.83,-16.7,1.34,-0.22,-1.99,25.9542
0.16,1.02,0.04,-2.62,-24.89,-10.51,-16.41,-28.12,-16.11,1.41,-0.16,-2.0,26.0279
0.13,1.01,0.11,-6.41,-22.71,-4.76,-16.99,-28.12,-16.41,1.41,-0.12,-2.05,26.1015
0.22,0.98,0.13,-6.82,-27.54,-5.88,-16.99,-27.83,-15.82,1.32,-0.22,-1.99,26.1752
0.21,1.04,0.09,-5.3,-5.09,1.63,-16.99,-28.42,-15.82,1.36,-0.2,-1.98,26.2488
0.23,0.97,0.11,-1.24,7.71,8.93,-16.41,-27.83,-16.7,1.32,-0.23,-1.99,26.3187
0.24,0.99,0.1,0.07,0.14,4.94,-16.7,-28.12,-16.41,1.31,-0.24,-1.97,26.3923
0.24,0.97,0.14,0.76,-0.85,4.08,-16.7,-28.71,-16.41,1.29,-0.24,-1.97,26.466
0.25,0.97,0.12,-0.17,-7.0,1.27,-16.41,-28.42,-16.41,1.29,-0.25,-1.96,26.5397
0.25,0.98,0.12,0.95,0.72,1.4,-16.11,-29.0,-16.11,1.3,-0.25,-1.95,26.6134
0.25,0.98,0.12,0.91,1.95,0.82,-16.41,-28.42,-16.41,1.3,-0.25,-1.96,26.6832
0.28,0.96,0.14,-1.3,-3.82,-1.36,-16.11,-28.71,-16.11,1.25,-0.29,-1.93,26.757
0.28,0.96,0.18,-1.92,-10.38,-4.8,-16.41,-29.3,-16.41,1.24,-0.28,-1.94,26.8306
0.25,0.98,0.13,-0.79,-11.63,-4.86,-16.7,-28.71,-16.7,1.29,-0.25,-1.97,26.9054
0.25,0.97,0.15,-0.48,-6.67,-3.52,-16.11,-28.71,-16.41,1.28,-0.25,-1.96,26.978
0.25,0.96,0.16,0.62,-4.97,-2.71,-16.41,-28.42,-16.41,1.27,-0.25,-1.97,27.0517
0.24,0.97,0.15,2.01,-0.7,-1.51,-16.7,-29.3,-16.7,1.29,-0.24,-1.97,27.1218
0.25,0.97,0.14,2.03,-4.91,-2.66,-16.41,-28.12,-16.41,1.28,-0.25,-1.97,27.1952
0.26,0.97,0.15,2.9,-2.57,-2.02,-16.7,-28.12,-16.11,1.27,-0.26,-1.96,27.2689
0.26,0.96,0.15,2.48,-3.46,-2.2,-17.29,-29.3,-16.7,1.27,-0.26,-1.96,27.3425
0.25,0.97,0.13,2.49,-2.77,-1.74,-16.7,-28.42,-16.41,1.29,-0.24,-1.97,27.4163
0.24,0.97,0.14,1.72,-2.01,-1.43,-16.99,-28.42,-16.7,1.29,-0.24,-1.98,27.4901
0.24,0.97,0.15,1.69,-0.21,-0.53,-15.82,-27.83,-16.7,1.29,-0.24,-1.98,27.5599
0.24,0.97,0.15,1.54,0.05,-0.52,-16.41,-28.42,-16.41,1.28,-0.24,-1.97,27.6334
0.24,0.97,0.15,1.3,-0.75,-0.95,-16.11,-28.71,-16.99,1.29,-0.24,-1.98,27.7073
0.26,0.96,0.16,1.85,-0.18,-0.91,-16.7,-29.3,-16.11,1.26,-0.26,-1.94,27.7808
0.26,0.97,0.16,1.43,-2.95,-0.97,-16.11,-28.42,-16.7,1.27,-0.26,-1.97,27.855
0.25,0.96,0.16,1.46,-2.7,-1.02,-16.11,-28.42,-16.41,1.28,-0.25,-1.97,27.9244
0.24,0.97,0.16,1.83,-0.21,-0.69,-15.82,-29.3,-16.7,1.28,-0.24,-1.96,27.9981
0.25,0.97,0.15,1.43,-1.58,-0.56,-16.7,-29.3,-15.82,1.27,-0.25,-1.94,28.0717
0.25,0.96,0.16,1.08,-2.58,-0.8,-16.41,-29.0,-16.7,1.27,-0.25,-1.97,28.1454
0.25,0.96,0.16,1.11,-2.01,-1.12,-16.41,-28.71,-16.41,1.27,-0.25,-1.96,28.2192
0.25,0.96,0.17,1.08,-2.85,-1.52,-16.11,-28.71,-16.41,1.26,-0.26,-1.96,28.2928
0.26,0.97,0.17,0.73,-3.35,-1.81,-16.99,-29.0,-15.82,1.26,-0.26,-1.95,28.3626
0.26,0.96,0.17,1.17,-2.39,-1.93,-16.7,-29.0,-16.7,1.26,-0.26,-1.97,28.4364
0.25,0.96,0.18,0.76,-2.66,-1.27,-16.41,-28.42,-16.41,1.26,-0.25,-1.97,28.51
0.26,0.96,0.17,0.41,-3.59,-1.79,-16.41,-29.59,-16.7,1.26,-0.26,-1.95,28.5837
0.24,0.95,0.19,1.0,-1.31,-0.54,-15.53,-28.42,-16.7,1.26,-0.24,-1.98,28.6576
0.25,0.96,0.17,1.37,0.95,-0.64,-16.99,-28.42,-16.41,1.26,-0.25,-1.98,28.7272
0.24,0.96,0.19,0.92,0.01,-0.26,-16.7,-29.0,-16.7,1.26,-0.24,-1.98,28.8009
0.25,0.95,0.18,0.34,-1.61,-0.86,-16.11,-28.71,-16.41,1.26,-0.25,-1.97,28.8746
0.26,0.95,0.18,0.37,-2.59,-0.76,-16.11,-28.71,-16.11,1.25,-0.26,-1.95,28.9486
0.25,0.95,0.2,0.5,-0.28,-0.25,-15.82,-29.3,-16.11,1.24,-0.26,-1.95,29.022
0.25,0.96,0.2,0.55,-2.48,-0.05,-16.41,-29.59,-16.41,1.25,-0.25,-1.96,29.0919
0.25,0.95,0.19,0.24,-1.31,0.31,-15.82,-29.0,-16.11,1.26,-0.25,-1.96,29.1655
0.25,0.95,0.19,0.5,-2.04,0.37,-16.41,-29.3,-15.23,1.25,-0.25,-1.94,29.2394
0.26,0.95,0.19,-0.01,-3.72,-0.27,-16.41,-29.3,-15.53,1.25,-0.26,-1.94,29.313
0.26,0.96,0.19,-1.52,-3.46,0.24,-16.41,-29.3,-16.41,1.25,-0.26,-1.96,29.3866
0.27,0.94,0.2,-2.61,-2.37,1.01,-15.82,-29.0,-15.82,1.23,-0.27,-1.94,29.4603
0.27,0.94,0.21,-3.26,-2.11,1.06,-16.41,-29.0,-16.11,1.23,-0.27,-1.95,29.5301
0.26,0.93,0.2,-4.17,-4.73,0.68,-15.53,-28.12,-15.82,1.23,-0.27,-1.95,29.6038
0.27,0.94,0.24,-4.04,-2.16,1.37,-16.11,-28.71,-15.23,1.2,-0.28,-1.94,29.6776
0.28,0.93,0.23,-4.52,-4.07,1.58,-16.41,-29.59,-15.23,1.2,-0.28,-1.92,29.7512
0.31,0.92,0.22,-5.24,-3.49,1.37,-16.11,-28.71,-14.65,1.18,-0.31,-1.9,29.8249
0.26,0.95,0.21,-7.13,-9.19,2.53,-15.82,-29.0,-15.23,1.23,-0.26,-1.93,29.8947
0.27,0.92,0.19,-12.93,3.05,9.54,-16.11,-29.88,-14.65,1.23,-0.28,-1.89,29.9684
0.29,0.97,0.12,-27.88,-10.25,7.45,-15.82,-30.18,-14.06,1.26,-0.29,-1.85,30.0421
0.38,1.0,0.12,-30.84,-38.65,4.84,-15.23,-30.47,-13.77,1.19,-0.36,-1.79,30.1158
0.4,1.05,0.2,-6.65,-59.31,1.34,-15.53,-31.05,-13.18,1.16,-0.36,-1.79,30.1896
0.37,0.9,0.42,1.11,-37.03,-2.59,-16.41,-31.64,-12.6,1.01,-0.36,-1.84,30.2632
0.43,0.78,0.47,17.97,-1.41,-18.52,-16.7,-32.23,-12.89,0.89,-0.45,-1.82,30.3369
0.38,0.77,0.4,69.73,-7.41,-33.04,-18.75,-31.35,-12.89,0.95,-0.41,-1.86,30.4068
0.38,0.78,0.34,98.62,4.04,-28.72,-20.51,-31.64,-14.65,0.99,-0.42,-1.89,30.4804
0.32,0.82,0.25,99.98,20.71,-15.25,-21.68,-31.05,-16.99,1.11,-0.36,-1.95,30.5542
0.4,0.91,0.15,112.84,9.38,-7.31,-22.85,-30.18,-19.34,1.14,-0.41,-1.97,30.6279
0.32,1.03,-0.27,39.93,-21.35,-11.31,-23.14,-29.88,-19.92,1.19,-0.29,-2.06,30.7016
0.25,0.92,-0.28,-23.99,23.17,2.66,-23.44,-30.76,-19.34,1.18,-0.25,-2.07,30.7753
0.42,1.07,0.1,-6.2,-14.05,-8.61,-23.73,-29.3,-19.34,1.19,-0.37,-2.0,30.845
0.09,1.13,-0.16,-18.35,40.17,3.11,-24.02,-30.18,-17.58,1.41,-0.08,-2.11,30.9186
0.29,1.0,-0.08,-16.92,31.23,-1.55,-24.9,-30.76,-18.16,1.28,-0.28,-2.0,30.9924
0.34,1.0,0.01,-23.77,16.69,-9.83,-24.02,-29.3,-16.41,1.24,-0.33,-1.96,31.066
0.2,1.0,0.1,-20.74,9.81,-8.01,-24.9,-30.18,-16.11,1.35,-0.2,-2.0,31.1398
0.25,1.0,0.01,-19.85,0.69,-9.12,-24.9,-29.88,-16.11,1.33,-0.24,-1.98,31.2135
0.28,0.99,0.04,-14.16,-3.52,-11.81,-24.61,-29.59,-14.94,1.3,-0.27,-1.95,31.2874
0.18,1.01,0.06,-14.43,-0.31,-9.03,-25.2,-29.88,-14.65,1.38,-0.18,-1.97,31.357
0.18,0.98,0.15,-8.21,-1.49,-5.42,-24.61,-29.3,-14.36,1.33,-0.18,-2.0,31.4307
0.12,0.99,0.17,-5.4,-12.97,-6.97,-24.9,-29.88,-14.06,1.37,-0.12,-2.02,31.5053
0.21,1.0,0.08,2.7,16.28,-0.38,-24.61,-29.3,-14.36,1.35,-0.21,-1.97,31.5781
0.2,1.0,0.03,-5.02,-5.04,-2.87,-25.2,-29.0,-13.48,1.37,-0.2,-1.95,31.6519
0.14,0.98,0.16,-8.09,-6.18,-2.56,-26.07,-29.59,-13.18,1.35,-0.14,-2.0,31.7223
0.18,0.98,0.2,-6.45,4.62,-2.13,-25.49,-29.59,-12.6,1.31,-0.17,-1.98,31.7953
0.18,0.98,0.15,-7.93,-1.95,-2.24,-24.61,-29.0,-12.89,1.34,-0.18,-1.97,31.8689
0.2,0.98,0.12,-14.61,-24.12,-6.26,-24.32,-29.88,-12.6,1.34,-0.2,-1.93,31.9427
0.16,0.97,0.2,-17.6,-18.46,-2.31,-24.61,-29.88,-12.89,1.31,-0.16,-1.98,32.0164
0.17,0.96,0.15,-19.22,-9.98,0.28,-24.61,-29.88,-12.3,1.34,-0.17,-1.95,32.0903
0.17,0.98,0.14,-18.36,6.21,2.36,-24.32,-30.18,-11.13,1.35,-0.17,-1.91,32.1599
0.08,0.97,0.11,-20.97,0.4,8.34,-24.9,-30.18,-9.96,1.43,-0.09,-1.9,32.2335
0.25,0.93,0.28,-20.99,4.11,6.31,-23.73,-30.47,-9.96,1.18,-0.26,-1.89,32.3074
0.28,0.95,0.25,-32.53,-43.12,-1.36,-24.02,-31.64,-9.08,1.19,-0.27,-1.84,32.3811
0.24,0.96,0.19,-37.57,-17.02,10.09,-23.73,-31.64,-9.96,1.26,-0.24,-1.84,32.4547
0.34,0.9,0.24,-54.6,-31.39,6.77,-24.02,-32.23,-7.32,1.13,-0.35,-1.76,32.5246
0.42,0.96,0.29,-42.34,-54.34,-5.85,-24.02,-33.69,-8.2,1.08,-0.4,-1.76,32.5982
0.36,1.01,0.33,-12.76,-71.4,-0.15,-25.49,-35.74,-8.5,1.12,-0.32,-1.79,32.6719
0.3,0.83,0.63,8.61,-16.11,11.84,-25.78,-35.74,-10.25,0.87,-0.28,-1.99,32.7457
0.37,0.67,0.57,23.73,27.14,5.67,-26.37,-36.04,-10.25,0.78,-0.39,-1.97,32.8194
0.48,0.62,0.54,52.43,33.61,-7.97,-28.71,-34.28,-11.43,0.71,-0.53,-2.02,32.893
0.47,0.68,0.43,102.5,0.72,-23.31,-31.05,-32.52,-14.65,0.81,-0.53,-2.05,32.9667
0.4,0.67,0.43,112.06,18.75,-20.35,-30.76,-31.35,-18.75,0.85,-0.47,-2.12,33.0366
0.39,0.82,0.28,125.18,4.77,-19.28,-33.4,-30.76,-23.14,1.04,-0.42,-2.15,33.1102
0.25,1.03,-0.04,101.45,33.84,2.44,-33.4,-30.18,-26.95,1.33,-0.24,-2.21,33.1839
0.27,0.89,-0.23,0.59,33.36,6.52,-33.11,-30.76,-26.07,1.19,-0.29,-2.21,33.2576
0.43,1.13,0.04,-7.68,8.56,-12.69,-33.4,-30.47,-25.49,1.21,-0.36,-2.14,33.3313
0.22,1.07,-0.08,-17.11,44.26,-1.95,-34.28,-31.64,-25.2,1.35,-0.2,-2.18,33.4052
0.31,1.0,0.02,-18.0,7.13,-6.97,-33.69,-31.35,-23.73,1.27,-0.3,-2.12,33.4749
0.27,0.99,0.06,-17.43,3.23,-7.01,-33.69,-30.76,-22.85,1.3,-0.27,-2.13,33.5485
0.3,0.99,0.06,-17.9,-12.14,-11.47,-34.28,-30.18,-22.85,1.27,-0.29,-2.14,33.6223
0.21,1.01,0.07,-12.02,2.97,-7.35,-33.98,-30.47,-22.85,1.35,-0.21,-2.16,33.6959
0.18,0.99,0.08,-6.1,22.93,-4.29,-34.28,-30.47,-21.68,1.38,-0.18,-2.15,33.7696
0.17,1.0,0.15,-7.29,6.29,-2.7,-34.28,-30.18,-21.68,1.35,-0.17,-2.19,33.8395
0.21,1.01,0.07,-1.36,17.62,-2.99,-34.57,-30.47,-21.68,1.35,-0.21,-2.14,33.9131
0.2,1.02,0.03,-7.16,-8.46,-5.65,-34.28,-29.59,-21.09,1.37,-0.19,-2.14,33.9874
0.18,0.98,0.13,-9.69,-15.1,-4.96,-34.28,-29.88,-21.68,1.34,-0.18,-2.18,34.0605
0.21,0.98,0.14,-6.65,-2.27,-4.6,-34.86,-29.59,-21.09,1.31,-0.21,-2.17,34.1342
0.21,0.98,0.12,-5.46,16.15,-0.35,-35.16,-29.59,-21.09,1.33,-0.21,-2.16,34.208
0.2,0.97,0.13,-18.22,-29.83,-5.38,-35.16,-30.18,-20.8,1.33,-0.2,-2.15,34.2816
0.14,0.98,0.17,-12.04,-1.18,-1.98,-33.69,-29.59,-19.34,1.35,-0.14,-2.17,34.3515
0.2,0.96,0.17,-16.76,-17.2,-4.28,-35.16,-29.88,-20.51,1.3,-0.2,-2.17,34.4251
0.17,1.0,0.1,-24.17,-26.28,-3.87,-34.28,-29.59,-19.04,1.37,-0.17,-2.13,34.4988
0.14,0.98,0.11,-23.95,-7.06,4.21,-35.45,-29.88,-19.04,1.39,-0.14,-2.14,34.5727
0.22,0.94,0.2,-21.09,5.67,6.01,-34.86,-30.76,-18.16,1.26,-0.22,-2.12,34.6461
0.28,0.94,0.31,-28.2,-16.96,4.39,-35.45,-31.05,-16.99,1.16,-0.27,-2.13,34.7199
0.25,0.94,0.23,-33.33,-7.55,14.42,-34.57,-31.35,-17.29,1.22,-0.26,-2.1,34.7897
0.21,0.94,0.19,-41.09,4.61,17.52,-34.28,-32.23,-16.11,1.28,-0.21,-2.06,34.8635
0.36,0.93,0.13,-34.36,-22.61,11.23,-33.98,-32.52,-15.23,1.18,-0.37,-1.97,34.9372
0.48,1.11,0.13,-18.18,-67.59,-2.89,-35.16,-32.81,-17.58,1.15,-0.41,-2.01,35.0108
0.26,0.96,0.67,-5.02,-32.34,-5.09,-34.28,-31.93,-17.87,0.93,-0.22,-2.26,35.0844
0.36,0.62,0.71,29.37,-8.94,-15.08,-33.98,-29.59,-20.51,0.66,-0.37,-2.31,35.1583
0.35,0.57,0.58,101.68,27.63,-18.65,-33.98,-28.71,-25.2,0.7,-0.41,-2.32,35.228
0.46,0.54,0.51,134.7,8.22,-19.5,-33.4,-26.66,-28.71,0.68,-0.55,-2.28,35.3017
0.34,0.67,0.41,139.85,12.86,-3.9,-31.35,-26.66,-33.98,0.9,-0.41,-2.32,35.3755
0.28,1.02,0.02,121.83,12.08,12.71,-29.0,-26.95,-36.62,1.3,-0.27,-2.35,35.4491
0.28,0.94,-0.42,-8.13,13.42,4.74,-29.59,-27.83,-37.21,1.07,-0.27,-2.39,35.5228
0.41,1.16,-0.19,-13.63,-17.4,-23.22,-29.3,-26.66,-36.91,1.2,-0.34,-2.32,35.5966
0.17,1.03,-0.03,-20.19,50.99,8.9,-29.0,-26.66,-35.74,1.41,-0.16,-2.4,35.6664
0.38,0.97,0.05,-11.09,68.14,1.24,-29.3,-28.71,-34.57,1.19,-0.38,-2.24,35.7401
0.43,0.94,0.05,-20.66,-3.71,-19.15,-29.88,-27.83,-33.98,1.14,-0.42,-2.22,35.8138
0.2,1.0,0.09,-17.88,-0.47,-14.09,-29.3,-28.42,-33.4,1.36,-0.19,-2.34,35.8875
0.27,0.99,0.04,-17.11,-5.47,-13.63,-29.88,-27.83,-33.69,1.3,-0.27,-2.3,35.9615
0.24,0.99,0.09,-19.95,-24.4,-15.34,-31.05,-26.95,-33.98,1.31,-0.24,-2.35,36.0348
0.18,0.98,0.13,-12.07,3.11,-7.54,-31.05,-26.66,-32.81,1.35,-0.18,-2.38,36.1046
0.18,1.02,0.08,-13.14,-5.77,-7.61,-30.76,-26.37,-33.11,1.38,-0.17,-2.38,36.1783
0.17,0.99,0.14,-12.29,-31.97,-9.28,-31.64,-25.49,-32.52,1.35,-0.17,-2.41,36.252
0.23,0.97,0.14,-9.74,-11.88,-4.42,-31.05,-25.49,-32.81,1.3,-0.23,-2.37,36.3258
0.24,0.97,0.14,-9.83,-7.48,-1.55,-31.35,-25.2,-31.64,1.29,-0.24,-2.36,36.3994
0.25,0.97,0.12,-11.57,-9.96,-3.81,-30.47,-24.9,-32.23,1.29,-0.25,-2.36,36.4733
0.2,0.95,0.23,-10.43,-3.38,-3.01,-31.35,-25.2,-31.64,1.26,-0.2,-2.41,36.543
0.21,0.97,0.18,-11.51,-4.92,-4.53,-31.93,-26.07,-31.64,1.3,-0.21,-2.37,36.6166
0.19,0.95,0.17,-15.22,-1.79,-2.25,-31.64,-24.9,-31.93,1.31,-0.19,-2.41,36.6905
0.23,0.95,0.18,-24.33,-15.03,-3.62,-31.35,-24.61,-30.76,1.28,-0.23,-2.38,36.7641
0.1,0.98,0.24,-30.98,-16.09,2.58,-31.35,-24.61,-29.59,1.31,-0.1,-2.46,36.8378
0.31,0.96,0.27,-20.87,-3.11,7.57,-31.05,-25.78,-29.0,1.16,-0.3,-2.31,36.9114
0.26,0.9,0.25,-25.92,-29.27,-1.05,-31.05,-24.61,-27.54,1.19,-0.27,-2.34,36.9851
0.19,0.9,0.27,-21.69,-0.07,13.73,-30.76,-25.49,-27.54,1.22,-0.2,-2.37,37.055
0.32,0.82,0.36,-25.22,7.17,18.48,-29.88,-25.2,-26.66,1.03,-0.35,-2.3,37.1286
0.23,0.86,0.21,-41.44,3.92,20.89,-29.3,-26.37,-25.49,1.22,-0.25,-2.28,37.2023
0.32,0.95,0.07,-40.02,-27.73,15.82,-28.12,-26.07,-24.9,1.24,-0.33,-2.2,37.2761
0.38,1.25,0.12,-9.77,-59.1,5.14,-26.66,-26.66,-24.02,1.27,-0.29,-2.18,37.3497
0.29,0.97,0.81,14.8,21.32,8.29,-24.61,-25.2,-23.44,0.84,-0.23,-2.35,37.4196
0.48,0.57,0.87,87.01,28.48,-13.64,-23.14,-25.2,-24.32,0.52,-0.44,-2.23,37.4932
0.4,0.29,0.71,164.3,-13.12,-21.0,-22.85,-25.2,-26.37,0.34,-0.48,-2.21,37.567
0.37,0.32,0.67,153.67,78.9,-3.02,-21.39,-25.2,-29.59,0.4,-0.47,-2.19,37.6409
0.44,0.89,0.16,141.59,32.3,13.95,-19.92,-24.32,-31.64,1.09,-0.45,-2.18,37.7143
0.22,0.89,-0.43,-45.58,-22.8,-5.71,-20.8,-24.32,-30.47,1.08,-0.22,-2.37,37.7884
0.22,1.12,-0.25,-12.17,24.29,-6.53,-20.51,-24.32,-30.18,1.28,-0.19,-2.36,37.8618
0.25,1.06,0.04,-5.88,76.31,4.2,-20.51,-26.07,-29.59,1.33,-0.23,-2.27,37.9315
0.42,1.01,0.04,-23.7,2.27,-11.5,-19.63,-24.9,-28.42,1.17,-0.39,-2.17,38.0054
0.31,1.0,0.05,-30.69,-42.18,-15.28,-21.39,-25.2,-28.42,1.27,-0.3,-2.23,38.079
0.31,0.99,0.08,-28.15,-34.23,-13.11,-21.09,-25.2,-28.71,1.26,-0.3,-2.24,38.1527
0.16,0.99,0.14,-5.62,40.92,1.23,-21.39,-24.61,-27.54,1.36,-0.16,-2.33,38.2265
0.22,1.0,0.11,-9.57,17.05,-4.77,-21.68,-25.78,-27.25,1.33,-0.21,-2.26,38.3
0.19,1.0,0.11,-12.15,-4.34,-7.13,-21.68,-25.49,-26.95,1.36,-0.18,-2.28,38.3698
0.23,0.98,0.08,-14.02,-19.86,-9.77,-21.97,-25.49,-26.66,1.33,-0.22,-2.25,38.4435
0.23,0.96,0.21,-12.41,-10.86,-6.26,-21.09,-25.49,-26.07,1.25,-0.23,-2.25,38.5173
0.24,0.94,0.22,-14.07,-9.16,-5.31,-21.39,-25.49,-26.07,1.24,-0.24,-2.25,38.5909
0.18,0.94,0.23,-18.62,-8.07,-3.17,-21.97,-25.49,-25.78,1.27,-0.19,-2.29,38.6647
0.17,0.97,0.12,-15.02,-6.2,-0.17,-21.68,-24.9,-24.9,1.36,-0.17,-2.27,38.7385
0.2,0.96,0.16,-20.18,-13.76,-3.78,-21.39,-25.2,-25.2,1.31,-0.2,-2.26,38.8082
0.21,0.94,0.15,-31.01,-40.34,-3.4,-21.68,-24.9,-24.32,1.31,-0.21,-2.24,38.8819
0.21,0.94,0.3,-24.86,0.73,4.41,-21.97,-24.9,-24.02,1.2,-0.21,-2.27,38.9556
0.26,0.94,0.25,-26.6,1.72,10.36,-21.68,-25.49,-22.85,1.21,-0.26,-2.2,39.0292
0.26,0.93,0.24,-28.72,-6.39,10.66,-21.68,-26.07,-22.27,1.21,-0.27,-2.17,39.103
0.27,0.92,0.12,-38.89,-0.31,13.47,-21.09,-26.07,-20.51,1.26,-0.29,-2.1,39.1766
0.54,1.0,0.02,-47.07,-98.95,-2.78,-20.8,-26.37,-18.46,1.08,-0.49,-1.96,39.2464
0.22,1.1,0.53,-15.69,-57.74,-0.35,-20.8,-27.54,-17.58,1.09,-0.18,-2.17,39.3202
0.33,0.79,0.79,15.37,-8.54,2.4,-21.09,-28.12,-16.99,0.74,-0.29,-2.16,39.3938
0.42,0.64,0.61,56.86,33.59,-9.86,-22.27,-28.42,-16.41,0.71,-0.44,-2.09,39.4675
0.5,0.52,0.53,110.6,15.54,-21.44,-22.85,-26.66,-19.04,0.63,-0.59,-2.1,39.5414
0.38,0.61,0.49,135.66,5.1,-25.18,-24.32,-25.78,-21.39,0.78,-0.45,-2.18,39.6149
0.33,0.77,0.36,122.65,26.95,-10.77,-23.73,-25.2,-23.44,1.01,-0.37,-2.2,39.6886
0.3,1.03,-0.04,83.02,-28.47,-5.56,-23.44,-24.32,-26.66,1.28,-0.29,-2.24,39.7585
0.25,0.91,-0.29,-18.76,3.3,3.17,-24.9,-24.9,-25.49,1.17,-0.25,-2.29,39.8322
0.35,1.09,-0.13,-1.17,41.53,3.91,-24.61,-25.2,-25.49,1.24,-0.31,-2.21,39.9059
0.24,1.03,-0.05,-12.96,51.44,6.26,-24.32,-25.49,-24.32,1.34,-0.23,-2.22,39.9796
0.47,1.02,-0.01,-25.2,19.55,-9.33,-24.32,-25.78,-23.44,1.14,-0.44,-2.1,40.0532
0.3,1.0,0.08,-29.68,-38.83,-18.18,-25.49,-25.2,-23.73,1.26,-0.3,-2.19,40.127
0.25,0.96,0.1,-23.02,-24.59,-6.35,-24.9,-24.61,-23.73,1.3,-0.25,-2.23,40.1968
0.27,0.98,0.19,-14.54,3.29,-8.64,-24.61,-25.2,-21.68,1.24,-0.27,-2.19,40.2705
0.22,0.96,0.23,-15.43,-8.0,-4.83,-25.2,-25.49,-22.56,1.26,-0.21,-2.24,40.3442
0.22,0.99,0.09,-5.5,21.22,-1.66,-24.61,-24.9,-22.27,1.34,-0.21,-2.21,40.4179
0.25,0.98,0.13,-11.03,-5.74,-7.26,-24.61,-26.07,-21.39,1.29,-0.25,-2.17,40.4916
0.21,0.99,0.09,-13.77,-20.76,-6.87,-24.61,-26.07,-21.39,1.35,-0.21,-2.18,40.5653
0.23,0.98,0.14,-11.15,-5.99,-4.8,-25.49,-25.78,-21.39,1.3,-0.23,-2.19,40.635
0.22,0.96,0.18,-14.03,-11.6,-5.13,-24.9,-26.07,-20.21,1.28,-0.22,-2.17,40.7089
0.23,0.96,0.15,-18.42,-15.39,-5.15,-24.9,-25.49,-20.51,1.3,-0.23,-2.18,40.7825
0.21,0.96,0.15,-22.68,-12.57,-3.04,-25.49,-25.49,-20.21,1.31,-0.21,-2.18,40.8563
0.18,0.96,0.23,-22.44,-1.71,2.18,-25.49,-26.37,-19.34,1.27,-0.18,-2.19,40.9299
0.22,0.92,0.22,-27.22,-13.01,0.89,-24.61,-25.49,-19.34,1.24,-0.23,-2.18,41.0035
0.2,0.95,0.25,-24.01,8.74,6.23,-25.2,-26.37,-17.87,1.24,-0.2,-2.16,41.0734
0.29,0.95,0.23,-35.06,-20.15,10.83,-24.61,-26.66,-17.29,1.2,-0.29,-2.09,41.147
0.3,0.95,0.25,-28.76,1.29,16.4,-24.61,-27.54,-16.99,1.18,-0.29,-2.07,41.2208
0.29,0.87,0.1,-52.88,-8.26,17.27,-24.02,-26.66,-15.53,1.23,-0.32,-2.0,41.2945
0.49,1.01,0.12,-32.18,-86.48,0.56,-24.02,-27.83,-13.77,1.11,-0.45,-1.91,41.3682
0.29,0.9,0.6,-18.8,-32.08,15.69,-24.9,-28.12,-14.36,0.93,-0.26,-2.15,41.4419
0.29,0.73,0.76,16.23,-7.29,9.92,-25.2,-27.25,-15.23,0.73,-0.27,-2.24,41.5116
0.38,0.73,0.58,83.9,27.02,-8.68,-25.49,-26.95,-15.82,0.81,-0.39,-2.16,41.5854
0.46,0.67,0.52,124.89,23.21,-16.01,-26.66,-25.49,-18.75,0.76,-0.49,-2.19,41.659
0.45,0.64,0.47,135.63,24.86,-18.32,-27.54,-23.73,-23.14,0.77,-0.51,-2.25,41.7328
0.39,0.78,0.39,123.64,45.32,-9.78,-27.25,-24.02,-25.78,0.96,-0.41,-2.27,41.8067
0.36,0.92,0.04,69.94,-63.15,-5.25,-26.95,-22.85,-28.12,1.19,-0.38,-2.27,41.8802
0.24,0.92,-0.29,-6.05,-11.36,-4.2,-27.25,-21.97,-28.12,1.18,-0.25,-2.4,41.9539
0.28,0.91,0.05,-29.61,25.88,6.13,-27.25,-22.27,-27.54,1.27,-0.3,-2.31,42.0239
0.32,1.16,-0.37,-15.12,26.92,3.8,-27.25,-22.85,-26.95,1.17,-0.26,-2.36,42.0974
0.11,1.08,-0.05,-13.05,72.83,7.94,-28.12,-23.14,-26.66,1.46,-0.1,-2.38,42.1712
0.37,0.96,0.07,-24.28,6.31,-8.32,-27.54,-23.44,-26.37,1.2,-0.37,-2.25,42.2447
0.33,0.98,0.09,-12.4,43.7,-4.77,-28.71,-23.14,-26.07,1.24,-0.32,-2.28,42.3185
0.25,0.98,0.12,-10.32,32.49,-8.26,-28.12,-22.85,-25.2,1.3,-0.24,-2.31,42.3884
0.34,0.94,0.15,-20.94,-9.57,-15.39,-28.12,-22.27,-25.2,1.2,-0.34,-2.28,42.462
0.22,0.95,0.19,-17.84,-15.34,-14.6,-27.83,-22.56,-24.32,1.27,-0.23,-2.33,42.5357
0.08,1.0,0.16,-9.88,12.46,-3.75,-28.12,-21.68,-24.32,1.39,-0.08,-2.43,42.6093
0.31,0.95,0.16,-13.8,-25.38,-14.87,-27.83,-21.68,-24.02,1.22,-0.31,-2.3,42.6831
0.19,0.97,0.14,-13.18,-31.64,-14.16,-27.83,-21.39,-23.44,1.34,-0.19,-2.35,42.7569
0.18,0.96,0.2,-12.67,-19.1,-6.97,-27.54,-21.68,-23.44,1.29,-0.19,-2.36,42.8305
0.22,0.95,0.22,-10.96,-4.13,-3.01,-28.42,-21.97,-22.56,1.25,-0.22,-2.33,42.9003
0.19,0.96,0.14,-16.3,-7.9,-2.33,-28.12,-21.39,-22.56,1.33,-0.19,-2.34,42.9741
0.21,0.95,0.31,-20.66,-8.64,-1.26,-28.42,-21.68,-21.39,1.19,-0.21,-2.36,43.0477
0.22,0.94,0.23,-25.0,-19.29,-2.88,-28.71,-21.39,-21.39,1.24,-0.22,-2.34,43.1216
0.2,0.94,0.25,-25.98,-21.98,0.1,-27.83,-21.39,-19.92,1.25,-0.2,-2.32,43.1952
0.24,0.96,0.27,-23.77,-6.07,7.37,-27.83,-21.09,-19.34,1.21,-0.23,-2.31,43.2649
0.27,0.9,0.31,-21.2,-1.14,9.33,-28.42,-20.51,-19.04,1.14,-0.28,-2.32,43.3387
0.23,0.88,0.25,-21.0,8.65,14.63,-27.83,-21.68,-19.34,1.2,-0.25,-2.29,43.4123
0.33,0.89,0.1,-40.96,-7.71,16.09,-26.66,-22.56,-17.58,1.2,-0.35,-2.15,43.486
0.47,0.93,0.06,-47.27,-97.89,-2.16,-26.95,-21.97,-16.99,1.1,-0.47,-2.13,43.5597
0.19,1.02,0.44,-20.07,-50.0,14.34,-27.54,-23.44,-16.7,1.14,-0.17,-2.3,43.6334
0.25,0.89,0.75,14.13,23.33,17.09,-26.66,-21.97,-16.99,0.84,-0.21,-2.39,43.7032
0.48,0.73,0.69,75.94,34.67,-9.77,-26.66,-21.39,-19.04,0.72,-0.45,-2.31,43.7769
0.53,0.5,0.57,129.65,8.93,-15.96,-26.37,-19.92,-22.85,0.57,-0.61,-2.3,43.8505
0.38,0.6,0.53,145.55,8.84,-21.97,-25.78,-19.04,-25.78,0.75,-0.44,-2.37,43.9244
0.37,0.72,0.37,122.09,48.16,-14.66,-25.2,-18.46,-29.88,0.94,-0.43,-2.38,43.9981
0.36,1.03,-0.02,82.44,-56.6,-12.99,-24.61,-17.58,-31.35,1.23,-0.34,-2.42,44.0718
0.24,0.9,-0.33,1.08,-1.4,-3.87,-24.61,-17.87,-32.23,1.15,-0.25,-2.51,44.1417
0.48,1.14,0.03,-17.52,-25.43,-4.62,-24.61,-17.58,-31.64,1.18,-0.39,-2.39,44.2152
0.21,1.04,-0.14,-17.52,44.92,5.33,-24.9,-17.29,-31.35,1.33,-0.2,-2.52,44.289
0.32,0.98,-0.04,-7.13,81.15,7.48,-24.32,-19.04,-31.64,1.25,-0.31,-2.4,44.3627
0.41,0.97,0.06,-17.68,39.61,-5.12,-24.02,-18.75,-30.47,1.17,-0.4,-2.35,44.4365
0.27,0.98,0.08,-25.13,-5.26,-12.35,-24.32,-19.63,-30.18,1.29,-0.27,-2.4,44.51
0.23,1.0,0.05,-21.7,2.68,-7.62,-24.02,-18.75,-29.59,1.34,-0.23,-2.44,44.5798
0.32,0.97,0.07,-25.89,-14.67,-13.26,-24.61,-18.16,-29.0,1.25,-0.32,-2.4,44.6576
0.11,1.0,0.16,-15.85,7.7,-4.34,-25.2,-18.16,-28.12,1.38,-0.11,-2.53,44.7272
0.24,0.97,0.23,0.09,49.51,1.62,-25.49,-18.46,-28.42,1.24,-0.24,-2.46,44.8009
0.27,0.96,0.2,-21.39,-52.39,-12.56,-24.61,-18.16,-27.83,1.23,-0.27,-2.43,44.8747
0.16,0.98,0.11,-15.32,-25.86,-7.1,-24.61,-18.16,-28.12,1.37,-0.16,-2.48,44.9484
0.23,0.93,0.22,-15.11,-17.94,-2.4,-24.61,-17.58,-27.25,1.24,-0.24,-2.46,45.0221
0.28,0.93,0.23,-16.84,-9.75,-2.55,-24.32,-17.58,-26.66,1.2,-0.28,-2.43,45.0919
0.22,0.95,0.13,-17.94,4.03,2.85,-24.61,-18.16,-26.66,1.31,-0.22,-2.43,45.1655
0.21,0.98,0.22,-22.95,-6.6,2.66,-24.9,-17.29,-26.07,1.27,-0.21,-2.47,45.2393
0.19,0.96,0.21,-26.99,-8.48,3.13,-24.32,-17.58,-25.78,1.29,-0.19,-2.47,45.3129
0.28,0.91,0.31,-32.14,-17.72,3.17,-24.61,-17.87,-25.49,1.14,-0.28,-2.43,45.3866
0.26,0.97,0.26,-28.43,-3.51,15.76,-24.9,-18.16,-24.32,1.21,-0.25,-2.42,45.4603
0.32,0.92,0.2,-26.82,-0.55,14.55,-24.32,-18.75,-24.02,1.18,-0.33,-2.34,45.5301
0.19,0.82,0.14,-12.34,37.51,46.04,-24.02,-19.34,-24.32,1.29,-0.23,-2.38,45.6038
0.56,1.02,0.07,-44.88,-64.0,5.72,-22.85,-18.75,-22.56,1.06,-0.5,-2.22,45.6775
0.35,1.02,0.49,-25.19,-76.2,1.07,-22.27,-18.46,-21.39,1.04,-0.3,-2.36,45.7513
0.3,0.82,0.73,8.37,13.72,-0.49,-21.68,-19.04,-21.68,0.8,-0.26,-2.41,45.8249
0.4,0.63,0.69,61.63,33.18,-11.57,-20.51,-17.87,-21.97,0.67,-0.41,-2.34,45.8986
0.56,0.56,0.53,107.77,13.84,-12.95,-20.21,-18.16,-23.73,0.63,-0.63,-2.21,45.9684
0.53,0.6,0.43,119.04,-6.33,-21.93,-19.34,-17.58,-24.61,0.72,-0.63,-2.2,46.0422
0.46,0.68,0.38,103.21,14.92,-13.96,-19.63,-16.99,-26.66,0.85,-0.53,-2.27,46.1159
0.32,0.96,0.28,61.64,-30.33,-19.23,-19.04,-16.7,-27.54,1.15,-0.31,-2.41,46.1895
0.32,1.02,-0.15,14.9,-3.06,-5.87,-17.87,-16.41,-27.83,1.24,-0.3,-2.41,46.2632
0.35,1.08,0.14,-1.98,54.68,-3.68,-18.75,-16.99,-28.12,1.24,-0.31,-2.39,46.3369
0.37,0.93,0.01,-18.42,56.47,1.69,-18.46,-16.7,-27.25,1.19,-0.38,-2.34,46.4068
0.28,0.96,0.18,-28.49,-5.78,-6.91,-18.75,-16.99,-26.66,1.24,-0.28,-2.4,46.4804
0.34,0.96,0.15,-19.43,9.8,-6.65,-18.75,-16.41,-26.07,1.2,-0.33,-2.37,46.5541
0.3,0.98,0.14,-24.31,-23.28,-12.02,-18.46,-16.41,-26.37,1.25,-0.29,-2.4,46.6278
0.23,0.96,0.25,-16.97,-1.14,-3.78,-18.46,-16.41,-26.07,1.24,-0.23,-2.46,46.7015
0.22,0.96,0.25,-15.43,-8.64,-5.73,-18.16,-16.41,-25.49,1.24,-0.22,-2.45,46.7753
0.19,1.0,0.02,-13.77,-19.38,-7.19,-19.04,-16.99,-25.78,1.39,-0.18,-2.44,46.849
0.22,0.97,0.18,-14.72,-16.24,-3.94,-18.16,-16.11,-24.61,1.29,-0.22,-2.44,46.9187
0.23,0.95,0.2,-14.71,-7.67,2.96,-18.46,-16.7,-24.61,1.26,-0.23,-2.42,46.9924
0.25,0.92,0.21,-17.95,-3.73,7.76,-18.16,-16.41,-24.61,1.24,-0.25,-2.41,47.0662
0.26,0.93,0.25,-20.63,-11.18,7.32,-18.16,-17.29,-23.44,1.2,-0.26,-2.37,47.1398
