Ax,Ay,Az,Gx,Gy,Gz,Mx,My,MZ,Roll,Pitch,Yaw,Time
0.13,-0.94,-0.22,2.58,-0.31,-2.93,-11.72,-28.42,-24.02,-1.31,-0.13,-1.09,0.001
0.11,-0.99,-0.14,-0.39,0.69,-12.12,-11.72,-29.3,-24.32,-1.39,-0.11,-1.05,0.0015
0.18,-0.97,-0.2,6.23,-0.85,10.13,-11.72,-29.0,-22.85,-1.3,-0.18,-1.18,0.0019
0.04,-1.15,-0.13,4.83,3.58,-22.31,-12.6,-29.3,-22.27,-1.46,-0.03,-0.99,0.0024
0.14,-0.83,-0.17,11.27,11.34,-5.42,-13.48,-31.05,-20.51,-1.31,-0.16,-1.25,0.0029
0.03,-0.93,-0.27,5.35,10.67,11.6,-13.77,-31.64,-20.21,-1.29,-0.03,-1.15,0.0033
0.02,-0.94,-0.17,-0.38,4.22,1.76,-12.89,-31.35,-19.63,-1.39,-0.02,-1.1,0.0038
0.24,-0.87,-0.12,3.86,5.68,15.3,-13.48,-31.93,-18.46,-1.27,-0.27,-1.44,0.0042
0.04,-0.97,-0.18,-4.38,-22.38,-14.6,-13.48,-31.93,-18.16,-1.38,-0.04,-1.16,0.0047
-0.03,-1.01,-0.24,-3.3,-13.11,-4.62,-14.06,-32.52,-17.29,-1.34,0.03,-1.15,0.0051
0.03,-0.98,-0.16,5.71,-0.53,-3.98,-14.36,-32.81,-16.99,-1.4,-0.03,-1.19,0.0056
0.12,-0.92,-0.18,3.18,7.13,-2.09,-15.23,-33.98,-16.41,-1.34,-0.12,-1.34,0.006
-0.07,-0.95,-0.28,-12.6,22.87,-0.28,-14.06,-34.57,-15.23,-1.28,0.07,-1.2,0.0065
0.09,-0.92,-0.29,-9.08,47.26,2.1,-14.65,-33.69,-12.6,-1.25,-0.1,-1.45,0.0069
0.11,-0.97,-0.32,-2.71,89.04,16.17,-13.48,-33.69,-9.67,-1.23,-0.11,-1.54,0.0074
-0.0,-1.03,-0.35,-1.3,121.7,-3.81,-13.48,-29.59,-6.15,-1.25,0.0,-1.51,0.0078
0.01,-0.85,-0.49,-1.81,172.2,15.95,-12.01,-26.37,-2.05,-1.05,-0.01,-1.73,0.0082
-0.23,-0.92,-0.44,4.34,195.26,23.5,-11.43,-20.51,-0.59,-1.08,0.22,-1.62,0.0086
-0.29,-0.88,-0.33,9.01,181.58,5.71,-11.13,-17.29,0.29,-1.1,0.3,-1.61,0.0089
-0.4,-0.97,-0.25,3.33,153.37,-14.59,-11.13,-13.18,0.88,-1.12,0.38,-1.67,0.0093
0.05,-0.83,-0.41,-3.03,176.41,48.84,-10.25,-9.96,0.29,-1.1,-0.05,-2.06,0.0097
-0.38,-1.03,-0.47,16.03,159.64,17.07,-9.96,-6.74,0.0,-1.04,0.32,-2.04,0.0101
-0.14,-0.96,-0.32,9.8,166.54,9.32,-10.25,-4.1,-0.88,-1.22,0.14,-2.08,0.0105
0.05,-1.1,-0.24,43.11,152.66,-9.1,-9.96,-1.76,-1.46,-1.35,-0.04,-2.0,0.0109
-0.04,-1.02,-0.3,37.64,113.07,-90.18,-10.25,0.0,-1.76,-1.28,0.04,3.09,0.0113
0.21,-0.77,-0.39,-40.82,99.34,-14.16,-9.08,0.88,-2.64,-1.05,-0.23,3.02,0.0117
0.28,-1.0,-0.52,-52.06,76.49,-24.62,-7.91,1.76,-3.81,-1.04,-0.24,2.11,0.012
0.14,-0.9,-0.39,-27.4,54.47,-80.75,-6.74,1.17,-4.1,-1.14,-0.14,0.53,0.0124
0.31,-0.82,-0.19,21.14,102.48,-11.03,-6.74,2.05,-4.39,-1.15,-0.35,0.24,0.0128
0.3,-0.85,-0.12,49.54,38.79,-54.27,-7.03,2.05,-2.64,-1.2,-0.34,1.18,0.0133
0.45,-0.82,-0.56,-7.64,-48.53,-86.18,-5.57,-1.17,-1.46,-0.85,-0.43,-2.64,0.0137
0.79,-0.84,-0.24,30.69,82.59,-191.66,-3.81,-0.88,-1.46,-0.8,-0.73,-2.52,0.0141
0.73,-0.8,-0.15,80.87,183.01,-15.76,-5.57,1.46,-2.34,-0.82,-0.73,-2.88,0.0145
0.57,-0.39,-0.02,-91.59,110.88,-76.0,-3.81,3.22,-4.39,-0.61,-0.96,-1.68,0.0149
0.82,-0.86,0.1,-145.97,81.99,19.04,-2.93,3.81,-7.32,-0.81,-0.76,-0.55,0.0153
0.7,-0.88,0.22,33.44,-28.69,-37.53,-2.05,1.76,-6.45,-0.88,-0.66,-0.63,0.0157
0.68,-0.85,0.04,-60.18,32.41,-83.28,-0.88,-0.29,-6.74,-0.9,-0.67,-0.91,0.0161
0.8,-0.24,-0.46,-69.27,117.07,16.11,0.59,0.59,-9.38,-0.26,-0.99,-1.31,0.0165
0.79,-0.45,-0.36,-106.87,56.56,65.12,0.29,2.34,-10.84,-0.47,-0.94,-1.07,0.0169
0.5,-1.06,-0.12,66.43,-39.92,103.41,-1.46,4.1,-8.79,-1.11,-0.44,-0.01,0.0173
0.96,-0.25,0.03,-34.85,-5.29,34.48,-1.76,3.22,-8.2,-0.25,-1.32,-1.63,0.0177
0.69,-0.89,-0.4,-53.57,8.31,80.76,-2.05,4.1,-8.5,-0.84,-0.62,-0.28,0.0181
0.76,-1.01,-0.5,-30.93,19.08,9.9,-2.64,4.1,-9.38,-0.84,-0.6,-0.32,0.0185
0.79,-1.09,-0.22,-34.58,19.87,-34.17,-1.46,2.34,-9.08,-0.93,-0.62,-0.5,0.0189
0.62,-1.09,-0.32,4.34,20.36,-20.94,-0.88,1.17,-8.2,-1.0,-0.5,-0.44,0.0193
0.48,-0.14,-0.11,-85.9,63.41,2.69,0.0,1.17,-9.08,-0.28,-1.21,-1.43,0.0197
0.29,-0.78,-0.24,-39.38,-33.76,-30.6,0.59,0.29,-9.96,-1.12,-0.34,-0.33,0.0201
0.65,-1.15,-0.37,-21.17,-13.4,-2.94,0.0,-1.17,-10.25,-1.0,-0.49,-0.69,0.0205
0.72,-0.76,-0.27,15.89,-17.97,-26.09,-1.17,-2.64,-9.67,-0.78,-0.73,-1.23,0.0209
0.72,-0.59,-0.57,17.34,17.2,-59.41,-0.59,-4.1,-9.96,-0.57,-0.72,-1.36,0.0213
0.65,-0.68,-0.43,-52.46,6.23,38.94,-0.88,-3.81,-10.84,-0.71,-0.68,-1.25,0.0217
0.79,-1.01,-0.34,-45.83,2.28,-37.2,-0.59,-5.57,-12.6,-0.86,-0.64,-1.19,0.0221
0.94,-1.06,-0.59,-13.65,34.22,-30.8,-0.29,-6.74,-13.77,-0.76,-0.66,-1.26,0.0225
0.78,-0.45,-0.63,12.11,45.75,1.69,0.29,-7.62,-13.77,-0.42,-0.79,-1.44,0.0229
0.65,-0.39,-0.65,-34.0,4.58,-9.13,-0.29,-8.79,-14.94,-0.4,-0.71,-1.45,0.0233
0.67,-0.95,-0.57,-11.57,3.51,-11.68,0.29,-9.38,-14.06,-0.82,-0.54,-1.23,0.0236
0.76,-0.52,-0.13,37.25,-38.09,-48.26,-0.88,-11.13,-14.06,-0.59,-0.96,-1.64,0.024
0.94,-0.76,-0.54,60.94,-23.94,-98.06,-1.46,-13.48,-13.18,-0.61,-0.79,-1.64,0.0244
0.94,-0.28,-0.78,1.98,-25.61,-111.12,-3.22,-16.11,-14.06,-0.23,-0.85,-1.75,0.0248
1.11,-0.31,-0.84,-14.61,-62.09,-111.64,-3.81,-18.16,-14.94,-0.22,-0.89,-1.78,0.0253
1.22,-0.25,-0.53,18.33,-64.35,-141.53,-5.27,-21.39,-15.82,-0.19,-1.12,-1.88,0.0257
0.96,-0.37,-0.51,62.37,87.17,-5.31,-6.74,-21.09,-12.3,-0.33,-0.99,-1.99,0.0261
0.36,-0.02,-0.27,40.69,-54.83,8.8,-7.62,-21.97,-13.77,-0.05,-0.92,-1.89,0.0265
1.04,-0.38,-0.44,14.34,-104.23,24.19,-7.03,-21.97,-14.94,-0.33,-1.06,-1.98,0.0269
1.61,-0.2,-0.57,14.61,4.76,65.7,-7.62,-21.97,-15.82,-0.12,-1.21,-1.96,0.0273
1.02,-0.13,-0.84,0.95,49.89,-10.86,-7.32,-22.27,-14.94,-0.1,-0.87,-1.87,0.0277
0.86,-0.12,-0.7,-57.95,18.46,41.33,-7.32,-21.97,-15.82,-0.11,-0.88,-1.87,0.0281
1.13,-0.37,-0.48,-48.1,-33.45,1.21,-6.45,-21.68,-17.87,-0.29,-1.08,-1.91,0.0285
1.26,-0.54,-0.64,32.62,3.04,-28.71,-7.62,-22.56,-18.46,-0.37,-0.99,-1.92,0.0289
1.24,-0.55,-0.78,24.26,32.39,-37.79,-9.38,-22.56,-17.87,-0.36,-0.92,-1.95,0.0293
0.73,-0.2,-0.58,22.16,38.87,4.72,-9.67,-22.56,-16.99,-0.22,-0.88,-1.95,0.0297
0.58,-0.01,-0.52,-8.49,-63.14,58.91,-8.5,-21.97,-18.75,-0.01,-0.84,-1.86,0.0301
0.94,-0.7,-1.03,-4.11,-79.99,71.34,-7.91,-20.51,-21.68,-0.46,-0.65,-1.73,0.0305
0.92,-0.47,-0.53,49.93,-81.68,-34.61,-8.79,-20.21,-23.14,-0.42,-0.91,-1.85,0.0309
0.77,-0.32,-0.54,113.91,-50.38,14.24,-8.79,-18.75,-23.44,-0.33,-0.89,-1.84,0.0313
0.82,-0.5,-1.0,18.88,-43.33,10.25,-9.08,-17.87,-24.9,-0.37,-0.64,-1.74,0.0317
0.75,-0.32,-0.93,-21.45,-38.46,21.18,-9.38,-16.99,-25.2,-0.26,-0.65,-1.79,0.0321
0.86,-0.43,-1.18,-18.34,-39.02,-28.42,-11.13,-16.7,-26.95,-0.28,-0.6,-1.81,0.0326
1.08,-0.77,-1.46,19.04,43.85,-86.94,-11.72,-17.87,-26.37,-0.4,-0.58,-1.77,0.033
0.61,-0.42,-0.75,72.51,96.03,-104.08,-12.6,-19.04,-26.07,-0.41,-0.62,-1.81,0.0334
0.53,-0.27,-0.39,112.3,26.1,-86.25,-13.18,-19.04,-24.9,-0.39,-0.83,-1.91,0.0338
0.9,-0.33,-0.83,5.13,-94.63,43.36,-12.89,-17.29,-26.07,-0.26,-0.79,-1.91,0.0342
1.17,-0.31,-0.88,-19.1,13.53,12.32,-12.6,-16.7,-27.25,-0.21,-0.9,-1.92,0.0346
1.02,-0.23,-0.85,-11.27,106.45,-38.8,-12.89,-17.58,-26.95,-0.18,-0.86,-1.93,0.035
0.82,-0.04,-0.6,-41.67,11.94,23.81,-12.3,-17.87,-26.37,-0.04,-0.94,-1.94,0.0354
0.89,-0.39,-0.66,-48.78,-59.27,19.12,-12.6,-17.58,-28.42,-0.34,-0.86,-1.87,0.0359
1.14,-0.38,-0.75,-3.98,-56.1,-1.72,-12.6,-16.41,-29.3,-0.27,-0.93,-1.89,0.0363
1.1,-0.74,-1.14,40.43,96.29,-74.94,-12.6,-16.99,-27.83,-0.43,-0.68,-1.79,0.0367
0.54,-0.09,-0.4,70.44,47.23,-19.73,-12.6,-16.7,-27.54,-0.14,-0.93,-1.93,0.0371
0.72,-0.62,-0.8,56.36,-88.94,-9.12,-11.72,-16.7,-28.12,-0.52,-0.62,-1.69,0.0375
0.79,-0.44,-0.7,52.32,-97.94,-34.9,-11.43,-15.82,-29.3,-0.4,-0.76,-1.77,0.0379
0.8,-0.38,-0.56,123.83,-85.72,-99.61,-11.43,-15.53,-28.42,-0.38,-0.86,-1.82,0.0383
0.81,-0.41,-1.07,124.93,-49.87,-99.0,-11.43,-15.82,-28.12,-0.29,-0.61,-1.8,0.0387
0.84,-0.24,-0.95,112.23,-45.12,-84.53,-10.55,-15.82,-27.83,-0.18,-0.71,-1.84,0.0392
0.79,-0.22,-1.06,91.11,-48.0,-81.99,-9.96,-16.7,-26.37,-0.16,-0.63,-1.84,0.0396
0.76,-0.17,-1.03,79.6,-33.59,-81.1,-11.43,-16.7,-27.25,-0.13,-0.63,-1.89,0.04
0.79,-0.15,-0.9,67.61,-14.6,-45.91,-10.25,-17.58,-26.95,-0.12,-0.71,-1.86,0.0404
0.74,-0.1,-0.82,40.81,-33.81,17.29,-10.25,-16.41,-26.37,-0.09,-0.73,-1.88,0.0408
0.77,-0.35,-1.03,30.65,-28.95,2.88,-9.08,-16.41,-26.37,-0.26,-0.61,-1.76,0.0412
0.79,-0.4,-0.77,35.17,-50.45,-5.41,-9.08,-15.82,-27.54,-0.35,-0.74,-1.74,0.0416
0.79,-0.48,-0.82,25.35,-66.19,4.49,-8.5,-15.23,-26.66,-0.4,-0.7,-1.7,0.042
0.92,-0.65,-0.89,51.53,-43.69,-46.9,-7.91,-14.94,-26.95,-0.47,-0.69,-1.64,0.0424
0.86,-0.46,-0.94,59.41,4.79,-82.47,-9.38,-15.82,-26.95,-0.35,-0.69,-1.74,0.0428
0.77,-0.21,-0.91,44.93,28.47,-46.16,-8.5,-16.7,-25.78,-0.17,-0.69,-1.8,0.0432
0.7,-0.21,-0.95,9.03,2.23,-1.72,-8.5,-16.7,-25.78,-0.18,-0.63,-1.79,0.0436
0.82,-0.34,-0.93,-26.19,-6.32,23.72,-8.5,-16.41,-26.07,-0.27,-0.69,-1.76,0.044
0.9,-0.41,-0.78,-12.02,11.17,12.0,-8.2,-16.11,-25.49,-0.33,-0.79,-1.76,0.0444
0.82,-0.4,-0.82,3.91,26.66,-3.68,-7.62,-16.99,-25.78,-0.33,-0.74,-1.73,0.0448
0.71,-0.35,-0.83,-8.89,15.3,20.52,-7.91,-16.7,-25.78,-0.31,-0.66,-1.72,0.0452
0.76,-0.45,-0.84,-18.7,1.89,43.11,-7.32,-16.11,-25.49,-0.38,-0.67,-1.68,0.0456
0.78,-0.42,-0.77,-8.22,-9.92,16.52,-7.62,-15.53,-26.37,-0.37,-0.73,-1.7,0.046
0.82,-0.53,-0.85,-0.37,-2.53,-3.52,-7.03,-15.23,-26.07,-0.42,-0.68,-1.65,0.0464
0.78,-0.44,-0.81,3.8,7.28,3.88,-7.91,-15.82,-25.78,-0.37,-0.7,-1.71,0.0468
0.78,-0.44,-0.85,4.16,5.06,-2.72,-7.62,-15.82,-25.78,-0.36,-0.69,-1.7,0.0471
0.74,-0.42,-0.83,4.52,-0.62,-2.17,-8.2,-16.7,-25.78,-0.36,-0.67,-1.72,0.0475
0.77,-0.44,-0.82,6.16,-4.52,-1.89,-7.62,-15.82,-25.49,-0.37,-0.7,-1.7,0.0479
0.75,-0.39,-0.83,4.01,-9.63,1.5,-8.2,-15.53,-25.49,-0.33,-0.68,-1.73,0.0483
0.78,-0.46,-0.85,6.47,-8.84,-5.54,-7.91,-15.53,-26.07,-0.38,-0.68,-1.69,0.0487
0.79,-0.44,-0.87,8.3,-1.25,-0.13,-7.32,-15.23,-24.9,-0.36,-0.68,-1.7,0.0491
0.78,-0.42,-0.86,3.04,-4.2,-0.56,-7.91,-15.53,-25.78,-0.35,-0.68,-1.71,0.0495
0.76,-0.43,-0.85,2.09,-2.17,0.6,-7.32,-15.23,-25.2,-0.36,-0.68,-1.69,0.0499
0.77,-0.43,-0.85,4.66,-1.88,-3.21,-7.32,-15.82,-26.37,-0.36,-0.68,-1.68,0.0503
0.76,-0.41,-0.87,1.89,-1.47,1.45,-7.32,-15.82,-26.07,-0.34,-0.67,-1.69,0.0507
0.77,-0.46,-0.85,2.56,-2.71,-2.6,-7.03,-15.53,-25.49,-0.38,-0.68,-1.67,0.051
0.78,-0.44,-0.82,8.94,-1.08,-2.17,-7.03,-15.82,-25.2,-0.37,-0.7,-1.68,0.0514
0.75,-0.42,-0.86,8.32,0.81,-3.48,-8.2,-15.53,-25.78,-0.35,-0.66,-1.71,0.0518
0.78,-0.45,-0.86,4.3,-0.78,0.95,-7.03,-15.53,-26.07,-0.37,-0.68,-1.67,0.0522
0.76,-0.44,-0.87,7.03,3.1,-0.24,-7.62,-15.82,-25.2,-0.37,-0.66,-1.69,0.0526
0.77,-0.44,-0.87,0.52,3.14,1.26,-6.74,-15.82,-24.9,-0.36,-0.67,-1.67,0.053
0.74,-0.42,-0.82,0.01,0.96,-3.07,-7.62,-15.82,-26.07,-0.36,-0.68,-1.69,0.0534
0.76,-0.44,-0.83,-0.89,-1.79,3.33,-7.03,-14.94,-25.78,-0.37,-0.68,-1.66,0.0538
0.76,-0.45,-0.83,1.48,2.28,1.7,-6.74,-16.11,-25.2,-0.38,-0.68,-1.67,0.0542
0.74,-0.44,-0.84,-0.73,-0.63,0.94,-7.62,-15.53,-26.66,-0.38,-0.66,-1.67,0.0546
0.76,-0.47,-0.82,3.94,-4.09,0.49,-7.03,-15.53,-26.37,-0.4,-0.68,-1.65,0.0549
0.78,-0.47,-0.87,6.47,0.1,-5.67,-7.32,-15.53,-25.49,-0.39,-0.67,-1.67,0.0553
0.73,-0.42,-0.83,4.62,-4.82,-2.33,-7.03,-15.53,-25.2,-0.36,-0.67,-1.68,0.0557
0.76,-0.45,-0.86,4.98,-3.76,-1.88,-8.2,-15.23,-25.78,-0.37,-0.67,-1.7,0.0562
0.76,-0.42,-0.84,4.39,-4.94,-2.14,-7.32,-15.53,-25.49,-0.35,-0.68,-1.69,0.0566
0.77,-0.45,-0.87,4.49,-1.11,-2.07,-7.03,-14.36,-26.07,-0.37,-0.67,-1.66,0.057
0.76,-0.42,-0.86,4.62,2.64,-4.84,-7.32,-14.65,-25.78,-0.35,-0.67,-1.68,0.0574
0.76,-0.42,-0.83,3.38,0.58,0.11,-7.32,-15.82,-25.49,-0.35,-0.68,-1.69,0.0578
0.76,-0.39,-0.83,3.68,0.5,0.95,-7.32,-15.82,-25.49,-0.33,-0.7,-1.7,0.0582
0.76,-0.46,-0.84,6.65,0.82,-2.77,-7.32,-15.53,-25.78,-0.39,-0.67,-1.67,0.0585
0.76,-0.44,-0.83,4.37,-2.02,-2.85,-7.62,-15.82,-26.37,-0.37,-0.68,-1.68,0.0589
0.78,-0.47,-0.86,4.46,-1.92,-2.89,-7.32,-15.23,-25.49,-0.38,-0.67,-1.68,0.0593
0.77,-0.44,-0.85,2.8,-1.96,0.57,-7.03,-15.53,-25.78,-0.36,-0.67,-1.67,0.0598
0.76,-0.43,-0.84,2.25,-2.3,0.53,-7.62,-16.11,-25.78,-0.36,-0.67,-1.69,0.0602
0.77,-0.44,-0.85,2.45,-2.78,1.94,-7.62,-15.23,-25.49,-0.37,-0.68,-1.69,0.0606
0.76,-0.44,-0.85,3.17,-1.99,-0.66,-6.45,-15.23,-25.49,-0.37,-0.67,-1.65,0.0609
0.78,-0.45,-0.85,1.95,-0.5,-1.64,-7.91,-14.65,-25.78,-0.37,-0.68,-1.7,0.0613
0.76,-0.44,-0.84,3.16,-0.38,1.05,-7.32,-15.82,-25.49,-0.37,-0.68,-1.68,0.0617
0.76,-0.45,-0.86,2.11,-1.44,-2.59,-7.03,-16.11,-25.78,-0.37,-0.67,-1.67,0.0621
0.76,-0.45,-0.85,3.43,0.45,-0.18,-7.32,-16.11,-26.07,-0.38,-0.67,-1.67,0.0625
0.74,-0.45,-0.84,1.71,-0.67,1.46,-7.32,-15.82,-25.49,-0.38,-0.66,-1.68,0.0629
0.77,-0.45,-0.84,4.17,-1.35,2.75,-7.32,-15.53,-25.2,-0.38,-0.68,-1.68,0.0633
0.75,-0.45,-0.85,4.2,1.04,0.97,-7.32,-15.23,-25.49,-0.38,-0.67,-1.67,0.0637
0.75,-0.45,-0.82,3.38,-2.15,-1.02,-7.32,-15.23,-25.49,-0.38,-0.67,-1.67,0.0641
0.77,-0.5,-0.84,5.72,-3.95,-0.45,-7.03,-15.23,-25.78,-0.41,-0.67,-1.65,0.0645
0.75,-0.44,-0.85,5.28,-0.4,1.77,-7.62,-14.94,-26.07,-0.37,-0.66,-1.68,0.0648
0.73,-0.49,-0.84,11.31,2.59,-2.12,-7.03,-14.94,-25.78,-0.42,-0.64,-1.63,0.0652
0.76,-0.47,-0.87,3.3,3.6,-4.75,-7.32,-15.53,-25.49,-0.39,-0.65,-1.67,0.0656
0.73,-0.44,-0.84,4.87,2.81,-1.67,-6.74,-14.94,-25.49,-0.38,-0.65,-1.65,0.066
0.77,-0.47,-0.82,8.03,2.85,-8.82,-7.91,-15.23,-25.49,-0.4,-0.69,-1.69,0.0664
0.77,-0.47,-0.82,10.73,-0.23,-8.36,-7.62,-15.82,-24.61,-0.39,-0.69,-1.7,0.0668
0.8,-0.47,-0.84,11.25,13.31,5.94,-7.91,-16.11,-25.78,-0.39,-0.69,-1.7,0.0672
0.77,-0.43,-0.8,9.96,-0.02,-12.13,-7.62,-16.7,-25.49,-0.36,-0.7,-1.71,0.0676
0.76,-0.4,-0.8,5.02,-1.4,-8.51,-7.91,-16.11,-24.9,-0.35,-0.7,-1.73,0.0679
0.78,-0.42,-0.8,-0.92,-3.61,12.44,-7.91,-16.7,-24.9,-0.36,-0.71,-1.73,0.0683
0.77,-0.46,-0.85,-5.46,-4.51,9.09,-7.62,-14.94,-25.2,-0.38,-0.67,-1.69,0.0687
0.78,-0.48,-0.8,-7.96,-10.59,-19.65,-7.91,-16.11,-25.2,-0.4,-0.69,-1.7,0.0691
0.83,-0.42,-0.87,-10.83,-2.07,-29.37,-8.79,-16.11,-25.78,-0.34,-0.7,-1.75,0.0695
0.81,-0.4,-0.86,-13.96,-0.48,3.32,-8.5,-16.99,-25.49,-0.33,-0.71,-1.75,0.0699
0.84,-0.35,-0.83,3.03,8.85,-17.01,-9.08,-16.99,-25.2,-0.28,-0.75,-1.8,0.0703
0.93,-0.52,-0.97,38.26,76.64,-26.48,-8.2,-17.58,-24.32,-0.37,-0.7,-1.74,0.0707
0.98,-0.41,-0.8,14.7,131.13,-95.09,-10.25,-20.21,-22.85,-0.32,-0.82,-1.87,0.0711
1.07,-0.25,-0.63,56.56,156.37,-108.52,-12.01,-21.68,-19.04,-0.2,-1.0,-2.02,0.0716
0.83,-0.05,-0.25,47.68,75.89,-133.19,-13.77,-22.27,-16.99,-0.06,-1.27,-2.15,0.072
0.82,0.03,-0.52,11.99,-7.03,-86.62,-16.11,-22.85,-16.7,0.03,-1.01,-2.11,0.0724
0.98,0.26,-0.16,-6.81,-37.43,-48.23,-16.99,-22.27,-16.99,0.26,-1.27,-2.07,0.0728
1.32,0.19,-0.24,-7.43,6.36,-34.81,-16.99,-22.85,-16.7,0.14,-1.34,-2.15,0.0732
1.11,0.34,-0.41,-39.38,22.92,-62.53,-18.46,-22.85,-16.7,0.28,-1.13,-2.08,0.0736
0.97,0.47,-0.2,-31.59,5.6,-32.66,-19.34,-23.14,-16.11,0.45,-1.08,-2.01,0.074
1.14,0.38,-0.3,-28.45,27.85,9.33,-19.34,-21.97,-16.11,0.31,-1.17,-2.11,0.0744
1.08,0.36,-0.14,-28.84,8.83,-16.75,-19.04,-23.44,-16.41,0.32,-1.23,-2.07,0.0748
0.98,0.35,-0.13,-6.53,1.35,-9.85,-18.75,-24.02,-16.11,0.34,-1.21,-2.05,0.0751
1.03,0.33,-0.16,-9.16,-25.81,5.9,-19.04,-23.44,-16.41,0.31,-1.23,-2.08,0.0755
1.06,0.37,-0.17,2.7,-17.03,6.54,-19.04,-22.27,-16.41,0.33,-1.21,-2.09,0.0759
1.13,0.37,-0.18,3.75,1.6,1.78,-18.16,-22.85,-15.82,0.32,-1.22,-2.07,0.0763
1.07,0.38,-0.19,-1.09,-8.75,13.15,-18.16,-23.14,-16.41,0.33,-1.2,-2.04,0.0767
1.09,0.33,-0.22,-2.44,-1.72,7.65,-18.16,-23.14,-16.7,0.29,-1.22,-2.07,0.0771
1.06,0.34,-0.18,0.34,-11.76,-18.52,-18.16,-22.56,-16.41,0.31,-1.22,-2.07,0.0775
1.0,0.37,-0.1,22.39,-15.28,32.33,-18.16,-22.56,-16.7,0.35,-1.21,-2.04,0.0779
1.02,0.15,-0.2,178.13,-60.42,137.57,-15.23,-23.14,-17.87,0.14,-1.33,-2.07,0.0783
1.2,0.11,0.16,47.43,-48.32,90.73,-13.77,-22.85,-18.46,0.09,-1.41,-2.07,0.0787
1.19,-0.19,-0.54,50.42,29.24,23.74,-12.89,-22.27,-17.29,-0.15,-1.12,-2.09,0.0791
1.14,-0.13,-0.49,-4.47,-23.9,-19.54,-13.18,-21.97,-17.58,-0.11,-1.15,-2.1,0.0795
1.03,0.01,-0.26,-15.5,-29.47,3.26,-13.18,-21.97,-18.75,0.01,-1.32,-2.07,0.0799
1.11,-0.04,-0.28,-8.73,-19.8,-14.37,-13.18,-22.27,-18.75,-0.03,-1.32,-2.09,0.0803
1.2,-0.08,-0.18,28.28,35.8,3.17,-13.77,-21.97,-18.46,-0.07,-1.41,-2.17,0.0807
1.05,0.05,-0.35,-20.87,-11.08,-2.66,-12.89,-22.56,-18.75,0.04,-1.25,-2.03,0.0811
1.04,0.21,-0.24,9.03,-23.68,102.39,-11.72,-21.97,-18.75,0.19,-1.28,-1.91,0.0815
1.12,-0.23,-0.52,-11.98,-42.02,21.93,-11.72,-21.39,-19.63,-0.18,-1.1,-2.03,0.0819
1.18,-0.21,-0.52,14.14,4.36,-19.34,-12.6,-22.27,-19.34,-0.16,-1.13,-2.06,0.0823
1.27,-0.21,-0.38,-15.24,108.21,-113.37,-14.06,-21.97,-18.46,-0.16,-1.24,-2.15,0.0828
1.04,0.06,-0.3,9.06,97.48,-53.83,-14.65,-23.44,-16.11,0.05,-1.29,-2.13,0.0832
1.0,0.22,-0.24,-20.63,30.37,-64.48,-15.82,-22.27,-15.53,0.21,-1.25,-2.08,0.0835
1.14,0.11,-0.22,6.68,21.68,-1.46,-15.53,-23.14,-14.94,0.09,-1.36,-2.18,0.084
1.13,0.24,-0.08,-42.26,22.33,-39.77,-16.41,-22.56,-14.65,0.21,-1.35,-2.13,0.0843
1.01,0.17,-0.13,-55.84,40.44,-104.16,-17.87,-23.14,-13.48,0.17,-1.36,-2.24,0.0848
0.91,0.19,-0.02,86.65,-72.01,30.6,-17.29,-22.56,-14.36,0.21,-1.36,-2.17,0.0852
1.09,0.81,0.06,-80.8,64.48,184.89,-13.18,-22.27,-12.89,0.64,-0.93,-1.76,0.0856
1.03,-0.2,0.18,2.94,-57.65,132.24,-11.13,-21.68,-14.94,-0.19,-1.31,-2.19,0.086
1.19,-0.12,-0.33,-93.22,-54.68,90.78,-9.67,-20.51,-16.7,-0.1,-1.28,-2.04,0.0864
1.29,-0.29,-0.27,-62.32,-47.86,23.26,-8.79,-20.51,-18.16,-0.22,-1.27,-2.03,0.0868
0.99,-0.52,-0.11,7.66,-84.73,-94.28,-9.96,-20.8,-20.21,-0.48,-1.08,-2.01,0.0872
1.18,-0.39,-0.55,33.95,-53.07,-79.19,-11.72,-21.39,-21.39,-0.29,-1.05,-2.0,0.0876
0.92,-0.1,-0.37,68.39,-71.92,-122.65,-12.6,-21.39,-21.39,-0.1,-1.18,-2.03,0.088
0.92,-0.04,-0.38,18.94,-8.2,-121.44,-13.48,-22.27,-20.8,-0.04,-1.18,-2.04,0.0885
1.01,0.11,-0.61,14.07,-11.1,-63.77,-14.65,-22.56,-21.09,0.09,-1.02,-2.01,0.0889
1.04,0.18,-0.32,26.8,-54.79,81.89,-14.36,-22.27,-21.39,0.16,-1.23,-1.98,0.0892
1.28,0.06,-0.7,37.27,-29.3,-39.03,-14.65,-21.39,-21.97,0.04,-1.07,-2.02,0.0897
1.19,0.11,-0.73,16.4,47.52,-21.0,-15.53,-22.27,-21.39,0.08,-1.01,-2.03,0.0901
0.87,0.08,-0.57,-1.94,6.68,-31.88,-15.23,-22.85,-20.21,0.08,-0.98,-2.03,0.0905
1.07,0.1,-0.45,15.93,6.32,0.15,-15.23,-22.27,-20.8,0.09,-1.17,-2.04,0.0908
1.02,0.16,-0.45,-24.1,12.24,-43.29,-14.65,-22.85,-19.92,0.14,-1.13,-2.0,0.0912
0.96,0.03,-0.45,-5.65,-2.77,-0.58,-14.94,-22.85,-19.92,0.03,-1.13,-2.05,0.0916
1.25,0.02,-0.43,39.42,29.5,71.75,-14.06,-22.56,-18.46,0.01,-1.24,-2.08,0.092
1.22,-0.07,-0.43,36.34,32.81,17.01,-12.89,-22.27,-18.75,-0.06,-1.23,-2.07,0.0924
0.94,-0.25,-0.37,74.48,27.79,55.78,-11.72,-21.39,-17.29,-0.24,-1.13,-2.09,0.0928
1.08,-0.23,-0.39,19.72,16.37,10.21,-11.13,-21.68,-17.58,-0.2,-1.17,-2.07,0.0932
1.03,-0.07,-0.26,3.44,2.25,-48.03,-12.01,-22.27,-17.29,-0.07,-1.31,-2.1,0.0936
1.09,-0.11,-0.28,15.23,-0.87,-3.3,-11.72,-21.97,-17.29,-0.1,-1.3,-2.1,0.094
1.13,-0.18,-0.22,13.18,-13.89,-6.11,-11.72,-21.97,-16.7,-0.15,-1.32,-2.15,0.0944
1.17,-0.16,-0.37,28.7,-11.46,22.17,-11.43,-21.97,-16.11,-0.13,-1.24,-2.11,0.0948
1.09,-0.13,-0.33,-10.65,-15.99,-22.64,-12.6,-21.97,-16.99,-0.11,-1.26,-2.13,0.0952
1.12,-0.21,-0.19,24.18,-48.39,-28.21,-12.3,-22.27,-18.16,-0.18,-1.33,-2.16,0.0956
1.0,0.08,-0.04,-82.79,-21.58,-83.06,-13.48,-21.97,-18.46,0.08,-1.48,-2.09,0.0961
1.2,-0.19,-0.39,23.79,-15.34,-34.65,-13.48,-22.27,-18.16,-0.15,-1.22,-2.13,0.0965
1.04,0.03,-0.39,42.51,-14.23,40.07,-13.77,-22.85,-17.87,0.02,-1.21,-2.07,0.0969
0.82,-0.1,-0.36,73.35,-31.01,87.43,-10.55,-21.09,-17.87,-0.11,-1.15,-2.01,0.0973
0.92,-0.21,-0.37,52.24,20.53,66.69,-9.38,-20.51,-16.99,-0.21,-1.14,-2.02,0.0977
1.05,-0.36,-0.28,24.07,10.13,-5.74,-8.79,-20.51,-16.99,-0.32,-1.16,-2.04,0.0981
0.99,-0.35,-0.3,38.12,-3.68,4.1,-9.08,-20.21,-16.7,-0.33,-1.14,-2.05,0.0985
1.04,-0.42,-0.24,-4.62,-10.39,-1.86,-8.79,-20.51,-16.41,-0.38,-1.13,-2.06,0.0989
1.04,-0.37,-0.36,11.97,3.67,-12.21,-9.67,-20.51,-15.82,-0.33,-1.11,-2.07,0.0993
1.03,-0.37,-0.33,-7.39,15.74,3.46,-9.38,-20.51,-16.11,-0.33,-1.13,-2.07,0.0997
1.03,-0.43,-0.26,-9.64,14.21,4.21,-9.08,-20.21,-15.82,-0.38,-1.12,-2.07,0.1001
1.02,-0.36,-0.28,7.58,-2.61,4.3,-8.79,-20.21,-15.82,-0.33,-1.15,-2.06,0.1004
1.03,-0.39,-0.24,9.67,-16.08,6.72,-8.79,-19.34,-15.53,-0.36,-1.15,-2.08,0.1008
1.0,-0.43,-0.27,51.51,-46.63,2.38,-9.67,-20.21,-16.7,-0.4,-1.1,-2.06,0.1012
1.0,-0.41,-0.29,3.17,-66.61,31.31,-8.5,-20.21,-17.58,-0.38,-1.11,-2.01,0.1016
0.84,-0.33,-0.49,-42.49,-16.27,49.3,-8.2,-19.63,-18.16,-0.32,-0.96,-1.92,0.102
0.97,-0.69,-0.42,44.43,52.21,-29.4,-7.32,-19.34,-17.29,-0.58,-0.87,-1.88,0.1024
-0.34,-0.88,-0.1,37.27,-33.75,-19.37,-6.74,-17.58,-16.7,-1.19,0.37,-0.53,0.1028
0.85,-0.71,-0.29,1.54,8.06,-68.24,-6.45,-17.87,-16.7,-0.67,-0.84,-1.83,0.1032
0.95,-0.55,-0.28,10.06,9.05,-39.01,-7.32,-19.04,-16.41,-0.51,-0.99,-1.96,0.1036
0.94,-0.54,-0.33,5.65,0.14,-11.78,-8.5,-18.16,-15.82,-0.49,-0.98,-1.99,0.104
0.94,-0.53,-0.27,-0.07,-8.16,-15.81,-8.2,-18.75,-16.7,-0.49,-1.01,-1.98,0.1044
0.97,-0.51,-0.3,0.85,-1.08,-7.38,-7.03,-19.04,-16.7,-0.47,-1.02,-1.95,0.1048
0.98,-0.46,-0.3,-4.36,3.84,-0.74,-7.62,-18.46,-16.11,-0.42,-1.06,-1.99,0.1052
0.96,-0.52,-0.28,-2.96,6.39,-15.4,-8.2,-19.34,-15.82,-0.48,-1.02,-2.01,0.1056
0.93,-0.51,-0.37,-43.14,-30.47,-101.2,-9.67,-19.92,-17.58,-0.47,-0.98,-2.0,0.106
1.18,-0.43,-0.26,27.92,27.36,-30.2,-9.38,-21.39,-16.99,-0.34,-1.17,-2.07,0.1064
1.04,-0.29,-0.27,-32.77,17.76,-31.79,-11.72,-21.97,-16.7,-0.26,-1.21,-2.14,0.1069
0.57,-0.25,0.04,75.36,60.46,98.67,-10.55,-21.39,-16.41,-0.41,-1.16,-2.13,0.1073
1.24,-0.29,-0.12,-22.19,77.09,193.54,-7.32,-19.63,-16.11,-0.23,-1.32,-2.05,0.1077
0.87,-0.3,-0.28,111.15,19.07,249.99,-3.52,-8.79,-13.48,-0.32,-1.13,-1.82,0.1081
0.16,-1.16,-0.06,52.25,-60.39,219.39,-4.1,-4.39,-12.6,-1.42,-0.14,-0.5,0.1085
-0.2,-1.02,0.02,26.92,-47.48,28.99,-4.69,-4.39,-11.72,-1.38,0.19,-0.18,0.1089
-0.01,-0.84,-0.02,12.45,-39.94,23.19,-4.98,-3.52,-11.13,-1.54,0.01,-0.3,0.1092
-0.0,-0.86,0.05,21.42,-50.94,49.26,-5.57,-3.81,-10.84,-1.51,0.0,-0.34,0.1096
-0.15,-0.88,0.13,18.26,-58.82,30.16,-5.86,-4.1,-10.25,-1.35,0.17,-0.25,0.11
-0.22,-0.83,0.09,27.96,-69.4,11.78,-7.03,-3.81,-9.67,-1.3,0.25,-0.15,0.1104
-0.1,-0.79,0.14,21.48,-39.76,11.81,-6.45,-4.39,-9.08,-1.35,0.13,-0.38,0.1108
-0.04,-0.77,0.26,4.12,-15.92,0.84,-5.86,-4.69,-8.79,-1.24,0.05,-0.57,0.1112
-0.08,-0.8,0.25,-2.15,-7.72,8.44,-6.74,-4.39,-8.79,-1.25,0.1,-0.49,0.1116
-0.08,-0.77,0.1,-12.6,18.33,-4.75,-7.32,-4.69,-9.67,-1.41,0.1,-0.4,0.112
-0.47,-0.96,0.16,-25.17,-2.91,-97.15,-5.57,-5.27,-10.25,-1.09,0.45,-0.03,0.1124
0.09,-0.79,-0.04,-39.82,31.1,-99.43,-4.39,-7.32,-10.84,-1.44,-0.12,-0.75,0.1128
0.23,-0.72,0.27,-19.77,-4.91,-55.22,-4.69,-7.32,-11.13,-1.12,-0.29,-1.06,0.1132
0.11,-0.97,0.05,-20.45,20.98,-30.16,-4.1,-8.2,-12.3,-1.44,-0.12,-0.73,0.1136
0.26,-0.9,-0.06,-14.79,-2.91,-60.38,-4.1,-9.67,-12.3,-1.28,-0.28,-1.03,0.114
0.44,-0.89,-0.04,-41.05,35.24,-77.62,-3.22,-11.13,-12.89,-1.11,-0.46,-1.29,0.1144
0.38,-0.94,-0.06,-46.95,34.24,-151.69,-4.1,-13.18,-13.48,-1.19,-0.38,-1.26,0.1148
0.54,-0.8,-0.12,-79.28,35.13,-165.34,-4.1,-14.94,-14.36,-0.96,-0.59,-1.54,0.1152
0.68,-0.74,-0.16,-51.8,15.97,-19.87,-5.27,-16.11,-14.65,-0.81,-0.73,-1.73,0.1156
0.75,-0.75,-0.15,-95.72,13.4,-40.92,-4.98,-17.29,-17.58,-0.78,-0.77,-1.7,0.116
0.82,-0.6,-0.25,-93.09,-3.06,2.92,-5.27,-16.7,-18.46,-0.6,-0.91,-1.78,0.1164
0.81,-0.72,-0.47,-79.73,-20.03,23.95,-4.69,-15.53,-19.04,-0.66,-0.76,-1.64,0.1169
0.79,-0.56,-0.55,-64.92,-38.81,96.9,-4.39,-14.65,-20.8,-0.53,-0.78,-1.63,0.1173
0.64,-0.68,-0.53,-78.48,-6.62,51.19,-4.39,-13.48,-22.27,-0.69,-0.64,-1.45,0.1177
0.6,-0.85,-0.81,-10.66,-20.35,8.92,-4.69,-12.6,-22.85,-0.7,-0.47,-1.31,0.1181
0.62,-0.64,-0.64,-15.27,-11.41,-19.94,-4.39,-13.18,-23.14,-0.62,-0.6,-1.44,0.1185
0.62,-0.84,-0.72,33.45,-3.33,22.32,-4.98,-13.18,-23.14,-0.72,-0.51,-1.34,0.1189
0.57,-0.78,-0.6,66.52,-20.76,-37.22,-4.1,-12.6,-22.27,-0.75,-0.52,-1.31,0.1193
0.59,-0.62,-0.58,-51.32,56.92,-132.01,-4.98,-14.36,-22.27,-0.64,-0.61,-1.49,0.1197
0.75,-0.58,-0.48,-28.54,19.96,-189.72,-6.15,-16.41,-22.85,-0.58,-0.78,-1.67,0.1201
0.9,-0.76,-0.78,-4.21,-73.5,-44.94,-7.62,-17.29,-25.49,-0.57,-0.69,-1.63,0.1205
0.87,-0.49,-0.79,0.5,-41.53,-19.58,-8.2,-16.7,-25.49,-0.4,-0.75,-1.73,0.1209
0.84,-0.35,-0.88,9.39,-12.86,-42.49,-9.38,-17.58,-25.78,-0.28,-0.73,-1.79,0.1213
0.86,-0.23,-0.88,35.39,2.2,-11.83,-9.08,-17.58,-25.49,-0.19,-0.75,-1.82,0.1217
0.85,-0.36,-0.92,14.91,75.42,34.23,-9.08,-17.87,-24.61,-0.28,-0.71,-1.8,0.1221
0.81,-0.35,-0.57,24.58,31.69,42.75,-7.91,-17.29,-23.44,-0.34,-0.88,-1.81,0.1225
0.9,-0.4,-0.58,-23.03,3.38,15.46,-7.62,-17.29,-23.14,-0.36,-0.9,-1.8,0.1229
0.9,-0.4,-0.58,-16.89,25.68,-1.5,-7.62,-18.16,-22.85,-0.36,-0.91,-1.81,0.1233
0.94,-0.38,-0.61,-27.88,21.72,-6.71,-8.79,-17.58,-22.27,-0.33,-0.92,-1.86,0.1237
0.95,-0.37,-0.62,-8.52,35.67,6.77,-8.2,-18.46,-22.56,-0.31,-0.92,-1.84,0.1241
0.93,-0.41,-0.61,10.57,14.27,9.3,-7.62,-17.58,-21.97,-0.35,-0.9,-1.82,0.1245
0.9,-0.41,-0.51,8.06,4.96,16.49,-7.62,-17.58,-22.85,-0.37,-0.94,-1.82,0.1248
0.97,-0.43,-0.61,-13.26,6.42,2.35,-6.74,-17.87,-22.56,-0.36,-0.92,-1.79,0.1252
0.98,-0.44,-0.61,19.01,16.45,10.63,-7.32,-17.58,-21.97,-0.36,-0.92,-1.82,0.1257
0.91,-0.45,-0.49,22.13,-1.13,32.44,-7.62,-16.7,-21.97,-0.41,-0.94,-1.82,0.126
0.91,-0.47,-0.53,8.0,-2.99,14.21,-5.86,-16.99,-21.68,-0.42,-0.91,-1.76,0.1264
0.98,-0.59,-0.57,-4.41,-15.47,18.07,-7.03,-16.7,-21.39,-0.48,-0.87,-1.78,0.1269
0.86,-0.51,-0.45,-2.61,-0.42,8.53,-6.45,-16.41,-21.97,-0.48,-0.9,-1.76,0.1273
0.86,-0.53,-0.51,37.64,-1.69,11.94,-5.86,-16.41,-20.21,-0.49,-0.86,-1.76,0.1277
0.89,-0.49,-0.53,-5.01,12.56,-2.07,-6.15,-16.41,-20.8,-0.44,-0.89,-1.77,0.128
0.94,-0.46,-0.38,-7.18,-49.61,32.82,-5.86,-16.99,-21.39,-0.43,-1.0,-1.81,0.1285
0.9,-0.5,-0.5,5.33,-13.69,-24.04,-6.15,-16.99,-21.97,-0.45,-0.91,-1.76,0.1289
0.88,-0.46,-0.54,15.06,-2.12,-6.13,-6.15,-16.7,-21.39,-0.42,-0.89,-1.77,0.1293
0.95,-0.56,-0.58,30.32,-6.4,-25.5,-6.45,-17.58,-21.68,-0.47,-0.87,-1.76,0.1297
0.87,-0.41,-0.39,30.36,23.7,0.56,-7.03,-18.16,-21.09,-0.4,-1.0,-1.85,0.1301
0.92,-0.42,-0.3,29.79,4.61,-23.44,-6.74,-18.16,-21.09,-0.41,-1.06,-1.87,0.1305
0.99,-0.49,-0.38,27.98,-74.96,0.88,-6.45,-17.58,-20.8,-0.43,-1.01,-1.84,0.1309
0.93,-0.49,-0.56,59.04,-30.16,-17.01,-7.32,-17.87,-21.09,-0.42,-0.9,-1.82,0.1313
1.37,-0.42,-0.71,77.53,-56.14,249.99,-3.52,-12.6,-19.34,-0.26,-1.03,-1.73,0.1317
0.64,-0.84,-0.53,60.65,-20.45,31.73,-4.1,-11.43,-18.46,-0.79,-0.57,-1.38,0.1321
0.52,-0.82,-0.36,11.84,10.28,-29.4,-2.64,-11.43,-18.16,-0.92,-0.53,-1.25,0.1325
0.45,-0.81,-0.34,22.47,48.07,97.66,-2.93,-9.67,-17.58,-0.97,-0.47,-1.14,0.1329
0.52,-1.22,0.02,27.22,-48.81,249.99,-3.52,-6.74,-16.99,-1.17,-0.4,-0.88,0.1333
0.09,-1.01,-0.26,60.52,-93.33,159.9,-3.52,-4.39,-15.23,-1.31,-0.09,-0.41,0.1337
0.08,-0.93,-0.13,29.76,-36.77,88.98,-4.1,-2.34,-15.53,-1.41,-0.09,-0.25,0.1341
-0.1,-0.87,-0.22,7.49,9.22,67.24,-4.39,-1.17,-14.94,-1.3,0.11,0.04,0.1345
-0.19,-0.88,-0.22,-20.63,26.6,22.41,-4.69,-1.46,-15.53,-1.26,0.2,0.13,0.1349
-0.22,-0.91,-0.14,-19.45,16.85,14.14,-5.57,-1.46,-15.23,-1.29,0.23,0.16,0.1353
-0.17,-0.92,-0.21,-38.89,75.72,-12.2,-4.1,-0.59,-16.7,-1.29,0.18,0.16,0.1357
-0.17,-0.77,-0.08,7.52,40.55,-32.4,-4.39,-1.46,-17.29,-1.33,0.21,0.14,0.136
-0.04,-0.68,-0.03,2.16,87.44,-30.29,-4.39,-1.46,-19.04,-1.5,0.05,-0.03,0.1364
0.08,-0.82,-0.43,-101.1,182.27,-43.56,-4.69,-2.05,-20.8,-1.08,-0.09,-0.24,0.1368
-0.01,-1.04,-0.73,-44.85,129.51,-59.84,-3.81,-3.22,-22.85,-0.96,0.0,-0.19,0.1372
0.1,-0.95,-0.58,-13.96,64.39,-73.21,-3.81,-4.69,-22.56,-1.01,-0.09,-0.38,0.1376
0.21,-0.94,-0.58,-8.98,63.71,-35.77,-3.52,-5.27,-23.44,-0.99,-0.19,-0.52,0.1381
0.15,-0.78,-0.33,-10.16,51.93,16.81,-3.81,-5.27,-23.44,-1.14,-0.17,-0.46,0.1385
0.21,-0.99,-0.6,-26.82,60.49,-4.34,-4.39,-5.86,-24.32,-1.0,-0.18,-0.54,0.1389
0.31,-0.86,-0.65,0.54,18.26,2.53,-3.52,-5.27,-23.73,-0.88,-0.28,-0.68,0.1393
0.36,-0.84,-0.62,9.01,0.9,12.36,-4.1,-5.27,-24.61,-0.86,-0.33,-0.76,0.1396
0.32,-0.86,-0.57,23.83,-7.75,-4.88,-4.1,-5.57,-24.02,-0.92,-0.3,-0.72,0.14
0.31,-0.88,-0.56,13.87,-27.1,1.98,-4.39,-5.57,-23.73,-0.94,-0.29,-0.7,0.1404
0.29,-0.89,-0.56,36.93,-59.99,-95.24,-3.22,-6.15,-21.97,-0.95,-0.27,-0.69,0.1408
0.59,-0.68,-0.61,-42.43,-154.98,-191.93,-4.1,-8.5,-22.85,-0.67,-0.57,-1.28,0.1412
0.46,-1.0,-0.67,35.04,-55.06,-90.48,-4.39,-9.08,-22.56,-0.89,-0.36,-0.98,0.1416
0.62,-0.92,-0.63,9.88,-22.99,-89.48,-3.52,-10.84,-22.56,-0.81,-0.51,-1.2,0.142
0.55,-0.85,-0.53,41.49,-20.87,-132.27,-3.52,-11.72,-21.39,-0.83,-0.51,-1.23,0.1424
0.62,-0.67,-0.66,43.09,-32.04,-6.59,-3.52,-11.13,-21.39,-0.64,-0.58,-1.37,0.1428
0.62,-0.8,-0.62,28.69,-34.26,-7.51,-3.52,-10.55,-21.09,-0.74,-0.55,-1.29,0.1432
0.5,-0.86,-0.56,40.64,-69.7,-54.24,-3.52,-11.72,-20.21,-0.85,-0.46,-1.21,0.1436
0.93,-0.61,-0.64,33.32,-52.04,-62.19,-4.1,-12.89,-20.8,-0.49,-0.81,-1.62,0.144
0.54,-0.89,-0.37,42.19,-74.89,58.61,-3.22,-11.72,-20.51,-0.93,-0.51,-1.2,0.1445
0.47,-0.93,-0.48,42.44,-95.63,145.55,-2.34,-7.91,-19.34,-0.95,-0.42,-0.97,0.1448
0.13,-1.1,-0.56,27.01,25.28,-14.64,-2.64,-7.32,-19.04,-1.09,-0.11,-0.56,0.1452
0.34,-0.83,-0.31,89.79,-94.07,-11.01,-2.93,-7.03,-17.58,-1.07,-0.36,-0.87,0.1457
0.21,-1.09,-0.28,96.51,-111.37,10.64,-3.22,-5.86,-15.53,-1.26,-0.19,-0.6,0.1461
0.0,-0.78,-0.4,30.4,-93.96,49.02,-3.52,-6.15,-15.53,-1.09,-0.0,-0.47,0.1465
0.16,-0.98,-0.17,-4.6,-27.2,-51.08,-3.81,-6.15,-15.23,-1.34,-0.16,-0.58,0.1469
0.09,-0.97,-0.2,41.14,-199.44,68.61,-3.52,-6.45,-13.48,-1.35,-0.1,-0.58,0.1473
0.03,-0.85,-0.25,22.5,-187.51,12.88,-3.81,-7.62,-12.6,-1.28,-0.03,-0.64,0.1477
0.13,-1.04,0.09,-3.23,6.52,14.42,-4.1,-7.32,-12.6,-1.42,-0.12,-0.68,0.1481
0.01,-0.98,-0.05,-31.34,102.51,-105.7,-3.81,-8.2,-13.18,-1.52,-0.01,-0.57,0.1485
0.18,-0.95,-0.12,-33.0,63.81,-44.28,-3.52,-9.38,-14.36,-1.34,-0.19,-0.82,0.1489
0.29,-0.92,-0.11,-60.71,69.02,-26.31,-3.22,-9.67,-15.53,-1.25,-0.3,-0.93,0.1493
0.34,-0.87,-0.12,-22.53,6.39,77.91,-3.22,-8.2,-16.11,-1.18,-0.36,-0.93,0.1497
0.64,-0.97,0.27,20.97,3.14,146.0,-3.22,-5.86,-15.82,-0.95,-0.56,-1.12,0.1501
0.05,-1.09,-0.3,-24.22,-43.86,93.03,-3.81,-4.69,-16.11,-1.3,-0.04,-0.36,0.1505
-0.56,-0.94,-0.72,-167.12,4.78,2.85,-3.81,-3.52,-19.63,-0.8,0.44,0.44,0.1509
-0.56,-0.39,-0.63,-72.56,27.15,-75.71,-3.81,-2.93,-21.39,-0.43,0.65,1.17,0.1513
-0.99,-0.38,-1.41,-19.26,36.64,-68.79,-3.81,-4.1,-22.56,-0.21,0.6,1.49,0.1517
0.13,-0.49,-0.39,62.64,-22.89,-48.64,-3.81,-4.98,-21.09,-0.87,-0.2,-0.62,0.1521
0.32,-0.57,-0.32,12.54,-81.81,-51.51,-2.93,-4.69,-20.51,-0.9,-0.46,-0.88,0.1525
-0.61,-1.27,-0.75,40.82,-17.43,39.0,-3.22,-4.69,-19.63,-0.92,0.39,0.22,0.1529
-0.19,-1.02,-0.59,16.78,120.99,-28.35,-3.81,-5.86,-19.04,-1.02,0.16,-0.18,0.1533
0.11,-0.93,-0.5,60.46,149.21,65.45,-3.52,-4.1,-19.92,-1.07,-0.1,-0.38,0.1537
-0.09,-0.8,-0.78,-45.39,179.01,62.48,-3.81,-2.34,-21.09,-0.79,0.08,-0.06,0.1541
-0.2,-0.56,-0.57,-88.66,138.94,1.69,-3.81,-2.64,-22.56,-0.75,0.24,0.23,0.1545
-0.11,-0.91,-0.5,-68.98,54.6,-122.3,-4.39,-3.81,-24.61,-1.06,0.1,-0.06,0.1549
0.2,-0.89,-0.43,-37.51,18.1,-10.74,-4.69,-4.39,-24.9,-1.08,-0.2,-0.46,0.1553
0.12,-1.07,-0.76,-23.32,36.09,17.4,-4.1,-4.39,-25.2,-0.95,-0.09,-0.36,0.1556
0.08,-0.88,-0.95,112.57,-7.23,53.23,-4.1,-4.39,-24.02,-0.74,-0.06,-0.43,0.156
-0.05,-0.92,-0.84,107.03,34.71,70.47,-3.22,-3.52,-22.56,-0.83,0.04,-0.18,0.1564
-0.13,-0.88,-0.74,14.85,-67.97,54.57,-4.39,-3.81,-20.51,-0.86,0.11,-0.11,0.1568
0.1,-0.83,-0.6,39.93,30.63,-64.98,-3.22,-4.98,-20.51,-0.93,-0.1,-0.46,0.1572
-0.34,-0.99,-0.68,-15.3,2.01,-67.61,-3.81,-6.15,-21.97,-0.91,0.28,0.01,0.1576
-0.15,-0.9,-0.4,-81.79,-38.69,-250.0,-3.52,-9.67,-22.56,-1.13,0.15,-0.3,0.1581
0.58,-0.89,-0.44,72.29,-107.0,-51.16,-3.81,-11.43,-21.39,-0.89,-0.53,-1.22,0.1585
0.38,-0.81,-0.64,60.73,-101.57,85.3,-2.93,-9.08,-20.51,-0.83,-0.36,-1.01,0.1589
0.18,-1.0,-0.52,29.66,-78.63,16.0,-2.64,-9.67,-19.63,-1.06,-0.16,-0.73,0.1593
0.49,-0.9,-0.61,126.5,-118.45,20.11,-3.22,-9.96,-18.46,-0.85,-0.43,-1.15,0.1597
0.18,-0.93,-0.68,38.16,-48.13,13.9,-2.93,-9.96,-19.34,-0.92,-0.16,-0.81,0.1601
0.53,-0.9,-0.42,-37.15,73.77,51.67,-2.93,-9.08,-19.92,-0.93,-0.49,-1.09,0.1605
0.15,-1.0,-0.56,-17.11,21.46,25.16,-2.93,-9.08,-18.75,-1.04,-0.13,-0.7,0.1609
0.16,-0.91,-0.52,-18.58,-2.53,21.9,-2.93,-9.38,-20.21,-1.03,-0.15,-0.71,0.1613
0.21,-0.83,-0.54,16.71,-7.25,-25.39,-4.1,-9.08,-19.92,-0.96,-0.21,-0.82,0.1617
0.21,-0.92,-0.5,8.9,-27.16,-21.26,-3.22,-9.67,-20.21,-1.04,-0.2,-0.77,0.1621
0.21,-0.93,-0.54,-10.38,18.29,-16.24,-2.93,-9.67,-20.8,-1.02,-0.19,-0.76,0.1625
0.25,-0.91,-0.59,-10.34,-8.11,-4.68,-3.52,-9.67,-20.51,-0.95,-0.23,-0.85,0.1629
0.42,-0.86,-0.62,-38.8,57.39,-37.4,-3.81,-9.96,-21.68,-0.86,-0.37,-1.04,0.1633
0.36,-0.79,-0.57,15.67,13.45,-110.12,-3.52,-11.43,-22.56,-0.87,-0.35,-1.04,0.1637
0.53,-0.66,-0.43,-19.09,1.44,-104.13,-4.69,-12.89,-22.56,-0.77,-0.59,-1.37,0.1641
0.44,-1.04,-0.44,-32.3,-35.59,-60.28,-4.98,-12.89,-23.44,-1.03,-0.37,-1.04,0.1645
0.6,-0.59,-0.85,12.05,76.31,-14.69,-4.98,-14.06,-22.85,-0.52,-0.52,-1.49,0.1649
0.51,-0.77,-0.8,-51.09,25.0,145.26,-5.57,-12.89,-23.14,-0.69,-0.43,-1.31,0.1653
0.59,-0.7,-0.76,-24.69,-12.79,74.17,-5.86,-11.13,-24.02,-0.63,-0.52,-1.38,0.1657
0.54,-0.49,-0.86,68.86,-142.31,38.9,-4.1,-9.96,-25.2,-0.45,-0.5,-1.39,0.1661
0.69,-0.7,-0.8,92.73,-147.09,-103.1,-4.39,-10.84,-23.44,-0.58,-0.58,-1.39,0.1666
0.74,-0.71,-0.68,95.13,-27.11,-73.04,-4.98,-13.18,-21.68,-0.61,-0.65,-1.52,0.167
0.66,-0.49,-0.73,161.18,-61.25,58.35,-3.52,-10.25,-19.34,-0.47,-0.64,-1.52,0.1674
0.17,-0.75,-0.39,212.84,-116.73,104.66,-3.22,-7.62,-14.94,-1.06,-0.2,-0.81,0.1678
0.16,-0.91,-0.12,128.65,-55.22,57.79,-4.69,-5.86,-12.01,-1.36,-0.17,-0.68,0.1682
-0.01,-0.84,-0.0,39.05,-38.59,51.03,-5.57,-5.57,-10.84,-1.56,0.01,-0.46,0.1686
-0.11,-0.81,0.06,36.9,-91.81,-7.22,-6.15,-6.45,-9.96,-1.42,0.14,-0.48,0.169
-0.02,-0.86,0.12,15.79,-96.29,-83.0,-6.45,-9.08,-9.67,-1.43,0.02,-0.79,0.1694
0.15,-0.88,0.3,29.41,-58.42,-28.0,-6.74,-9.67,-8.79,-1.2,-0.16,-1.21,0.1698
0.22,-0.79,0.18,16.46,-15.75,-31.68,-7.03,-10.55,-8.5,-1.23,-0.26,-1.35,0.1702
0.22,-0.75,0.2,46.26,-33.84,17.93,-7.32,-11.13,-7.91,-1.2,-0.27,-1.45,0.1706
0.22,-0.77,0.32,10.52,-1.09,-8.73,-7.32,-11.72,-7.62,-1.1,-0.26,-1.53,0.171
0.29,-0.75,0.31,8.32,26.06,2.43,-8.2,-11.72,-7.32,-1.06,-0.34,-1.67,0.1714
0.24,-0.71,0.39,-15.91,73.62,-19.94,-7.62,-10.55,-7.03,-1.0,-0.29,-1.65,0.1717
0.39,-0.72,0.25,-81.31,217.03,-94.4,-7.32,-9.38,-7.91,-0.99,-0.48,-1.71,0.1721
0.52,-0.56,0.2,-223.03,184.95,-230.32,-5.27,-9.08,-10.55,-0.79,-0.72,-1.74,0.1726
0.23,-0.87,-0.16,-185.13,53.18,-68.3,-3.22,-8.79,-14.06,-1.26,-0.25,-0.88,0.173
0.38,-0.72,-0.36,-100.78,25.49,-5.65,-2.64,-9.67,-15.82,-0.94,-0.44,-1.17,0.1734
0.49,-1.05,-0.08,-60.94,157.17,6.47,-3.22,-9.08,-16.99,-1.13,-0.43,-1.03,0.1738
0.26,-0.8,-0.04,-64.75,108.97,-75.65,-2.64,-10.25,-17.58,-1.25,-0.32,-0.91,0.1742
0.51,-0.86,-0.37,-87.71,64.35,-43.24,-2.93,-10.55,-19.04,-0.94,-0.5,-1.17,0.1746
0.71,-0.89,-0.43,25.22,-15.96,-33.2,-3.22,-11.72,-19.34,-0.82,-0.62,-1.36,0.175
0.47,-0.9,-0.19,120.56,-71.33,4.82,-2.93,-9.67,-17.29,-1.05,-0.48,-1.12,0.1754
0.43,-0.94,-0.11,131.48,-144.49,46.99,-2.64,-10.84,-15.53,-1.13,-0.42,-1.13,0.1758
0.16,-0.89,-0.5,200.77,-250.0,63.58,-4.39,-12.3,-13.77,-1.04,-0.15,-1.06,0.1762
0.44,-0.65,-0.25,125.69,-250.0,4.07,-4.39,-13.48,-13.18,-0.91,-0.57,-1.55,0.1766
0.53,-0.81,-0.18,104.1,-250.0,14.2,-5.27,-16.11,-13.48,-0.97,-0.57,-1.61,0.177
0.64,-0.85,-0.21,40.94,-232.95,26.8,-5.57,-15.82,-14.94,-0.9,-0.63,-1.64,0.1774
0.54,-0.43,-0.38,-4.58,-212.2,-8.33,-5.86,-16.99,-18.75,-0.58,-0.76,-1.72,0.1779
0.24,-0.94,-0.13,-220.85,21.19,122.48,-5.57,-15.23,-20.51,-1.29,-0.25,-0.96,0.1783
0.26,-0.79,-0.51,67.05,-163.65,2.09,-5.27,-14.06,-20.8,-0.94,-0.27,-1.09,0.1787
0.23,-0.85,-0.71,13.24,-24.99,-63.39,-5.57,-14.94,-21.09,-0.85,-0.21,-1.1,0.1791
0.32,-1.05,-0.73,-50.28,-22.78,-22.97,-5.57,-15.53,-22.27,-0.92,-0.25,-1.09,0.1795
0.47,-0.61,-0.07,41.7,59.84,-119.93,-6.74,-17.58,-20.8,-0.91,-0.65,-1.55,0.1799
0.58,-0.82,-0.6,118.93,-102.65,-218.58,-10.84,-19.63,-21.97,-0.78,-0.52,-1.61,0.1803
0.75,-0.28,-0.48,-58.94,-81.76,-126.38,-12.3,-20.8,-21.68,-0.3,-0.94,-1.98,0.1808
0.4,-0.68,-0.22,42.21,-147.46,-5.81,-11.72,-20.51,-22.56,-0.98,-0.5,-1.51,0.1812
0.71,-0.54,-0.34,-19.4,-76.4,21.33,-10.25,-19.34,-21.39,-0.6,-0.83,-1.85,0.1816
0.98,-0.81,-1.4,114.14,175.4,121.03,-9.96,-20.21,-20.8,-0.44,-0.54,-1.78,0.182
1.1,-0.85,-0.69,146.03,82.83,222.25,-7.03,-17.87,-18.75,-0.58,-0.79,-1.78,0.1824
0.6,-0.97,-0.82,43.76,129.36,-30.86,-7.62,-16.99,-18.16,-0.76,-0.44,-1.53,0.1828
1.22,-1.1,-0.46,-165.73,54.7,74.13,-7.03,-16.99,-21.39,-0.7,-0.8,-1.7,0.1832
0.56,-0.98,-0.53,-14.64,27.79,69.32,-7.03,-17.29,-20.8,-0.9,-0.46,-1.4,0.1836
-0.22,-0.22,-0.78,-49.71,-74.36,209.27,-4.69,-13.48,-21.97,-0.26,0.27,-1.32,0.184
0.1,-0.95,-0.63,-11.97,-60.62,55.72,-5.27,-12.6,-22.27,-0.98,-0.09,-0.78,0.1844
-0.22,-0.96,-1.38,75.33,43.54,9.22,-4.98,-11.72,-23.73,-0.6,0.13,-0.7,0.1848
-0.04,-0.99,-0.79,37.54,-13.03,5.26,-5.57,-11.43,-23.44,-0.9,0.03,-0.61,0.1852
-0.11,-0.37,-0.63,-115.01,-132.68,-57.85,-6.45,-12.6,-25.2,-0.52,0.15,-0.84,0.1856
-0.0,-0.0,-0.82,-206.3,-100.59,-27.83,-7.62,-11.13,-28.71,-0.0,0.0,-2.17,0.1861
0.11,-0.81,-0.88,-57.86,-79.32,-19.55,-8.79,-10.25,-30.47,-0.74,-0.09,-0.77,0.1865
0.15,-0.18,-1.09,-26.7,2.53,-17.85,-9.38,-10.25,-31.05,-0.16,-0.13,-1.88,0.1869
0.01,-0.4,-0.91,-100.17,34.77,-23.69,-10.84,-10.84,-31.05,-0.41,-0.01,-1.35,0.1873
-0.08,-0.31,-1.01,-166.25,-78.1,-16.53,-12.3,-13.18,-31.64,-0.3,0.07,-1.76,0.1878
0.02,-0.07,-1.02,-40.85,21.22,-7.9,-12.89,-13.18,-31.64,-0.07,-0.02,-2.23,0.1882
0.62,-0.49,-1.35,-12.02,-57.94,42.81,-13.18,-13.18,-31.93,-0.32,-0.41,-1.77,0.1886
0.21,-0.26,-1.22,-23.48,-45.51,-39.3,-13.77,-12.6,-31.35,-0.21,-0.17,-1.97,0.189
0.1,-0.34,-1.15,6.68,0.92,-39.18,-14.65,-13.77,-31.05,-0.29,-0.08,-1.91,0.1894
0.24,-0.19,-1.29,84.01,57.69,-33.0,-14.65,-15.23,-30.18,-0.14,-0.18,-2.05,0.1898
0.34,-0.28,-1.11,85.21,-41.14,-29.21,-13.77,-14.36,-30.47,-0.23,-0.29,-1.9,0.1902
0.39,-0.42,-1.06,38.02,-11.03,-39.01,-13.48,-14.65,-31.05,-0.35,-0.33,-1.74,0.1906
0.4,-0.45,-1.07,47.21,59.04,-28.94,-13.18,-15.82,-29.3,-0.37,-0.33,-1.73,0.191
0.44,-0.53,-0.99,130.84,41.73,-20.45,-11.43,-16.41,-27.25,-0.46,-0.37,-1.64,0.1914
0.6,-0.47,-0.84,-21.44,-3.86,-7.66,-11.43,-16.99,-26.07,-0.43,-0.56,-1.74,0.1918
0.51,-0.63,-0.95,72.69,61.0,-1.03,-11.13,-17.29,-25.78,-0.53,-0.42,-1.62,0.1922
0.58,-0.67,-0.8,95.88,35.42,-3.38,-10.55,-17.87,-24.9,-0.59,-0.51,-1.62,0.1926
0.54,-0.62,-0.85,-59.78,-3.4,14.89,-9.67,-16.99,-25.2,-0.55,-0.48,-1.59,0.193
0.63,-0.7,-0.7,-47.05,-30.91,38.28,-10.84,-17.29,-26.07,-0.64,-0.57,-1.61,0.1935
0.46,-0.7,-0.8,7.83,-6.77,6.53,-10.55,-16.11,-26.37,-0.65,-0.41,-1.48,0.1938
0.48,-0.71,-0.54,6.71,-15.88,4.51,-10.25,-17.29,-26.66,-0.78,-0.49,-1.45,0.1942
0.54,-0.75,-0.84,8.61,39.03,5.0,-9.67,-17.29,-25.78,-0.65,-0.45,-1.5,0.1946
0.49,-0.72,-0.83,5.86,34.94,21.16,-8.79,-17.87,-26.07,-0.64,-0.42,-1.47,0.195
0.73,-0.74,-0.77,61.61,9.49,40.78,-7.91,-15.53,-24.32,-0.61,-0.6,-1.57,0.1954
0.61,-0.94,-0.77,49.51,11.74,90.0,-6.74,-14.65,-23.14,-0.76,-0.47,-1.37,0.1958
0.38,-0.84,-0.61,31.01,18.33,44.19,-5.57,-14.65,-22.27,-0.86,-0.35,-1.2,0.1962
0.24,-0.77,-0.46,30.48,5.81,53.68,-5.57,-14.06,-21.09,-0.98,-0.26,-1.05,0.1966
0.15,-0.82,-0.44,15.37,-18.62,31.39,-5.27,-13.48,-21.09,-1.06,-0.16,-0.89,0.197
0.25,-0.9,-0.59,28.96,-11.96,49.0,-5.27,-12.6,-21.09,-0.96,-0.22,-0.98,0.1975
0.09,-0.92,-0.46,28.66,-3.36,25.45,-4.1,-11.72,-20.51,-1.1,-0.09,-0.71,0.1979
0.17,-0.98,-0.36,-6.97,-2.17,8.88,-3.81,-12.3,-20.51,-1.18,-0.16,-0.78,0.1982
0.27,-0.98,-0.61,12.36,19.35,18.72,-4.1,-12.6,-21.09,-0.97,-0.23,-0.94,0.1986
0.09,-0.91,-0.35,-4.64,19.29,-9.06,-4.69,-13.48,-20.8,-1.19,-0.09,-0.75,0.199
0.07,-0.94,-0.47,12.99,28.6,16.75,-4.69,-12.3,-20.8,-1.11,-0.07,-0.72,0.1994
0.08,-0.9,-0.45,23.1,12.18,23.09,-3.52,-12.01,-20.21,-1.11,-0.08,-0.71,0.1998
0.1,-0.93,-0.44,1.37,6.05,3.85,-4.1,-12.6,-20.21,-1.12,-0.1,-0.76,0.2002
0.05,-0.94,-0.39,4.12,19.71,-6.58,-4.1,-11.72,-19.92,-1.18,-0.05,-0.67,0.2006
-0.03,-0.88,-0.44,-0.79,24.12,-24.06,-4.69,-12.89,-20.21,-1.11,0.04,-0.64,0.201
0.2,-0.96,-0.49,11.88,3.43,9.43,-3.81,-12.01,-19.04,-1.06,-0.18,-0.88,0.2014
0.12,-0.96,-0.37,9.24,-5.35,-9.87,-4.39,-12.6,-19.34,-1.18,-0.12,-0.79,0.2026
0.05,-0.74,-0.32,-46.1,-54.53,-67.36,-4.98,-13.48,-20.8,-1.16,-0.06,-0.74,0.2037
-0.05,-0.93,-0.38,16.56,40.28,43.95,-4.39,-12.6,-20.51,-1.18,0.05,-0.57,0.2041
0.1,-0.76,-0.39,-8.79,41.37,4.88,-4.39,-12.3,-19.92,-1.09,-0.11,-0.79,0.2045
0.09,-0.94,-0.6,22.76,47.04,26.01,-4.69,-12.6,-19.92,-1.0,-0.08,-0.81,0.2049
0.04,-0.93,-0.35,11.38,-2.63,15.48,-4.39,-12.3,-19.92,-1.21,-0.04,-0.67,0.2053
-0.13,-0.84,-0.45,-3.31,-24.76,25.45,-3.52,-11.43,-19.34,-1.06,0.13,-0.49,0.2058
0.02,-0.93,-0.42,-4.59,-16.96,10.92,-4.98,-11.72,-19.63,-1.14,-0.02,-0.66,0.2062
-0.26,-0.86,-0.34,-4.76,-56.27,-39.02,-4.1,-12.3,-19.63,-1.11,0.27,-0.35,0.2066
-0.2,-1.02,-0.71,39.79,-83.93,3.33,-4.1,-13.18,-18.46,-0.94,0.16,-0.62,0.207
-0.14,-0.91,-0.34,47.25,-31.04,-32.55,-4.39,-13.18,-17.29,-1.18,0.14,-0.58,0.2074
-0.25,-1.69,-0.3,187.07,58.42,100.63,-4.1,-12.6,-14.36,-1.35,0.14,-0.62,0.2078
-0.22,-0.66,-0.05,-151.51,6.18,-26.23,-4.39,-12.6,-16.11,-1.24,0.32,-0.39,0.2082
0.3,-1.0,-0.2,-47.55,12.83,-32.91,-4.39,-14.06,-16.41,-1.23,-0.29,-1.09,0.2086
0.32,-1.01,-0.35,-29.58,7.01,-17.55,-3.81,-13.48,-17.87,-1.13,-0.29,-1.05,0.209
0.05,-0.82,-0.45,-43.81,-40.28,-33.47,-4.69,-14.06,-18.16,-1.07,-0.05,-0.85,0.2095
0.08,-0.93,-0.41,-15.41,22.24,14.14,-4.39,-13.18,-18.75,-1.15,-0.08,-0.79,0.2099
0.2,-0.95,-0.55,4.17,-4.14,5.35,-4.1,-13.77,-18.75,-1.02,-0.18,-0.97,0.2103
0.22,-1.02,-0.38,8.75,0.72,15.44,-4.1,-13.18,-18.46,-1.16,-0.2,-0.92,0.2107
0.1,-0.87,-0.46,17.17,1.85,17.65,-3.81,-13.48,-18.16,-1.07,-0.1,-0.87,0.211
0.09,-0.97,-0.38,8.06,-1.98,2.11,-3.81,-13.18,-18.75,-1.18,-0.09,-0.79,0.2114
0.04,-0.91,-0.42,2.97,2.99,5.76,-3.22,-12.89,-18.46,-1.14,-0.04,-0.74,0.2118
-0.02,-0.97,-0.32,6.04,-7.32,6.96,-3.52,-12.89,-18.16,-1.25,0.02,-0.65,0.2122
0.16,-0.96,-0.43,3.91,8.47,21.89,-3.52,-12.6,-18.46,-1.13,-0.15,-0.85,0.2126
-0.08,-0.94,-0.33,-2.46,-13.4,-6.75,-3.81,-12.89,-18.46,-1.23,0.08,-0.59,0.213
-0.08,-0.92,-0.37,2.62,-9.83,10.15,-4.1,-11.72,-17.87,-1.18,0.08,-0.57,0.2134
-0.02,-0.93,-0.33,-0.28,-1.32,11.46,-3.22,-11.13,-18.46,-1.23,0.02,-0.57,0.2138
-0.01,-0.92,-0.36,-9.3,-3.63,2.21,-2.93,-12.01,-18.46,-1.19,0.01,-0.63,0.2142
-0.08,-0.9,-0.37,3.0,2.12,2.38,-3.22,-11.72,-18.46,-1.17,0.08,-0.55,0.2146
0.01,-0.96,-0.38,-5.82,0.05,-3.49,-3.52,-11.13,-18.16,-1.2,-0.01,-0.63,0.215
-0.0,-0.93,-0.39,-3.91,-1.62,-0.64,-3.52,-11.43,-17.58,-1.18,0.0,-0.65,0.2155
-0.01,-0.93,-0.44,5.12,-2.75,-0.21,-3.81,-12.01,-18.16,-1.13,0.01,-0.67,0.2159
0.02,-0.95,-0.39,0.06,0.92,5.38,-3.52,-11.72,-18.16,-1.18,-0.02,-0.67,0.2163
-0.05,-0.93,-0.37,1.4,-0.63,-6.37,-3.52,-12.01,-18.46,-1.19,0.05,-0.59,0.2241
0.0,-0.92,-0.46,15.36,-0.92,1.26,-3.81,-11.72,-18.46,-1.11,-0.0,-0.67,0.2979
0.07,-0.95,-0.38,12.95,-1.34,4.98,-2.93,-11.13,-17.87,-1.19,-0.07,-0.7,0.3716
-0.01,-0.94,-0.39,6.4,0.8,-0.3,-3.22,-12.01,-18.16,-1.18,0.01,-0.65,0.4453
-0.01,-0.94,-0.39,1.45,-2.54,3.54,-3.52,-11.72,-18.46,-1.18,0.01,-0.63,0.519
0.03,-0.94,-0.37,1.38,12.74,-5.88,-4.1,-11.43,-18.46,-1.19,-0.03,-0.67,0.5928
-0.19,-0.88,-0.3,0.14,-0.73,-0.86,-3.22,-11.72,-17.58,-1.19,0.2,-0.44,0.6665
-0.04,-0.94,-0.34,-3.91,-5.36,-14.08,-3.22,-11.43,-18.46,-1.22,0.04,-0.57,0.7402
-0.08,-0.91,-0.37,0.43,-3.86,-1.42,-3.22,-12.01,-18.46,-1.17,0.08,-0.57,0.8141
0.01,-0.95,-0.36,-1.89,-3.29,-5.54,-3.52,-12.01,-18.46,-1.21,-0.01,-0.66,0.8877
0.01,-0.91,-0.41,6.1,-0.5,-0.67,-4.1,-12.6,-18.16,-1.15,-0.01,-0.71,0.9615
-0.03,-0.95,-0.41,5.48,8.08,1.64,-3.52,-11.72,-18.16,-1.17,0.03,-0.63,1.0351
-0.04,-0.94,-0.38,2.14,2.01,-0.34,-3.81,-10.84,-17.87,-1.19,0.04,-0.57,1.1088
0.03,-0.94,-0.42,7.03,6.83,1.93,-3.22,-11.43,-18.75,-1.15,-0.03,-0.66,1.1826
0.08,-0.96,-0.42,2.68,6.54,4.33,-4.1,-11.72,-17.87,-1.15,-0.07,-0.75,1.2524
-0.06,-0.94,-0.36,1.09,-1.75,-0.77,-3.52,-11.43,-18.46,-1.2,0.06,-0.56,1.33
0.03,-0.92,-0.42,1.71,1.11,-4.62,-3.52,-12.01,-18.16,-1.15,-0.03,-0.71,1.3999
0.03,-0.93,-0.38,6.33,-5.76,0.93,-4.1,-11.72,-18.75,-1.18,-0.03,-0.67,1.4738
-0.01,-0.92,-0.41,4.73,-8.04,-5.16,-3.22,-11.13,-17.58,-1.15,0.01,-0.64,1.5474
-0.0,-0.9,-0.43,6.15,-6.01,-0.75,-3.81,-12.6,-18.16,-1.13,0.0,-0.7,1.6211
0.04,-0.93,-0.45,4.78,-7.97,1.5,-3.81,-11.72,-18.46,-1.12,-0.04,-0.71,1.6948
0.05,-0.9,-0.43,8.33,8.32,2.33,-3.52,-12.6,-17.87,-1.12,-0.05,-0.76,1.7685
-0.05,-0.94,-0.46,16.1,-2.75,-2.86,-3.81,-11.72,-17.58,-1.12,0.04,-0.64,1.8422
0.04,-0.97,-0.38,-3.34,1.41,-13.45,-4.1,-11.13,-17.87,-1.19,-0.04,-0.67,1.916
-0.01,-0.87,-0.5,8.67,4.84,0.31,-3.81,-11.13,-17.58,-1.05,0.01,-0.69,1.9897
0.1,-0.98,-0.51,14.16,10.42,3.01,-3.81,-11.72,-17.58,-1.08,-0.09,-0.8,2.0634
0.04,-0.93,-0.4,-4.03,-5.65,-12.7,-3.81,-11.43,-17.87,-1.16,-0.04,-0.7,2.1371
-0.07,-0.88,-0.46,-7.02,-3.17,-9.96,-4.1,-10.84,-18.16,-1.09,0.07,-0.57,2.2109
-0.01,-0.87,-0.46,0.78,-11.32,-4.13,-4.1,-10.84,-18.75,-1.08,0.01,-0.62,2.2847
-0.08,-1.02,-0.35,5.23,-17.7,-6.91,-3.81,-10.84,-17.58,-1.23,0.07,-0.53,2.3584
0.07,-0.95,-0.39,-3.56,7.93,8.25,-3.81,-10.55,-18.46,-1.18,-0.07,-0.67,2.4321
0.09,-0.91,-0.41,-2.91,-4.14,10.15,-2.93,-10.55,-17.87,-1.14,-0.09,-0.71,2.5058
-0.11,-0.8,-0.36,3.74,-31.96,-10.77,-3.22,-9.38,-19.04,-1.12,0.13,-0.39,2.5796
0.07,-0.97,-0.34,17.74,5.62,-5.42,-4.1,-9.67,-18.46,-1.23,-0.07,-0.61,2.6534
-0.02,-0.85,-0.41,2.49,2.3,-9.86,-3.81,-9.67,-19.04,-1.12,0.02,-0.54,2.727
0.08,-0.94,-0.4,-1.43,15.88,-18.01,-4.1,-9.38,-18.46,-1.17,-0.08,-0.63,2.8007
0.15,-0.96,-0.47,-0.31,-2.37,-0.23,-3.52,-9.38,-18.46,-1.1,-0.14,-0.72,2.8744
0.12,-1.07,-0.34,-3.25,17.95,10.44,-3.52,-9.08,-18.75,-1.25,-0.11,-0.61,2.9482
0.14,-1.08,-0.34,-14.93,4.47,3.15,-3.52,-9.08,-19.04,-1.24,-0.12,-0.63,3.0219
0.07,-0.8,-0.48,-4.56,14.36,3.17,-3.81,-7.91,-18.75,-1.03,-0.07,-0.59,3.0957
-0.03,-0.9,-0.32,10.33,10.8,2.84,-4.1,-8.79,-20.21,-1.23,0.03,-0.43,3.1694
0.13,-1.03,-0.26,1.81,6.67,3.42,-3.52,-8.2,-19.63,-1.3,-0.12,-0.55,3.2432
-0.01,-0.78,-0.56,8.75,4.79,3.59,-3.22,-7.91,-19.34,-0.95,0.01,-0.51,3.3168
0.15,-1.0,-0.4,-0.66,-2.07,0.11,-2.93,-6.74,-19.92,-1.17,-0.14,-0.53,3.3907
0.02,-0.96,-0.56,-7.17,-13.83,-9.54,-4.1,-6.74,-20.21,-1.05,-0.02,-0.43,3.4643
-0.07,-0.98,-0.48,-8.6,-17.43,-9.83,-3.52,-6.45,-20.51,-1.11,0.06,-0.29,3.538
0.16,-0.94,-0.46,-1.91,7.69,1.13,-3.52,-6.45,-20.8,-1.09,-0.15,-0.54,3.6118
0.14,-0.92,-0.34,12.53,-19.55,-0.92,-3.81,-5.27,-20.8,-1.19,-0.14,-0.44,3.6854
0.09,-0.87,-0.36,2.58,-11.46,-0.12,-3.22,-5.27,-20.8,-1.17,-0.1,-0.4,3.7592
0.1,-0.87,-0.43,10.11,1.95,3.27,-2.93,-4.1,-21.39,-1.1,-0.1,-0.35,3.8329
0.22,-0.89,-0.43,-10.12,-1.75,1.96,-3.22,-4.39,-21.39,-1.07,-0.22,-0.52,3.9066
0.1,-0.94,-0.52,3.94,-7.69,-11.75,-3.52,-2.93,-20.8,-1.06,-0.09,-0.29,3.9804
0.14,-1.09,-0.53,4.07,-15.7,-18.96,-2.64,-2.93,-20.51,-1.1,-0.12,-0.31,4.0541
0.0,-0.96,-0.27,-20.98,17.49,-2.96,-3.22,-1.76,-22.27,-1.3,-0.0,-0.09,4.1279
-0.02,-0.76,-0.49,12.49,-6.97,5.08,-3.22,-0.59,-21.97,-1.0,0.02,-0.01,4.1976
0.11,-1.01,-0.34,18.21,9.71,7.78,-3.52,-0.29,-21.39,-1.23,-0.1,-0.13,4.2713
0.07,-0.81,-0.43,4.52,-1.88,0.72,-3.22,0.29,-22.56,-1.08,-0.07,-0.08,4.3451
0.04,-0.9,-0.42,3.83,-1.3,3.94,-3.81,1.17,-22.27,-1.13,-0.04,0.02,4.4188
0.07,-0.96,-0.46,-0.24,-4.6,6.63,-4.1,1.46,-22.27,-1.12,-0.07,-0.0,4.4926
0.03,-0.98,-0.51,12.5,-24.2,-2.47,-4.69,1.76,-22.27,-1.09,-0.03,0.06,4.5663
0.11,-1.11,-0.19,-28.12,-16.14,-0.13,-4.98,2.34,-22.85,-1.37,-0.1,0.0,4.64
-0.05,-0.75,-0.46,9.42,-27.44,1.5,-5.57,2.64,-22.85,-1.02,0.05,0.23,4.7137
0.17,-1.01,-0.28,19.65,-4.3,16.65,-5.86,3.52,-21.97,-1.26,-0.16,0.0,4.7874
-0.03,-0.76,-0.44,5.15,-5.75,-8.0,-5.86,4.69,-22.56,-1.05,0.03,0.32,4.8612
0.09,-0.91,-0.45,12.44,6.46,5.54,-7.03,5.27,-22.56,-1.1,-0.09,0.18,4.9349
-0.03,-0.98,-0.47,-8.86,5.74,-11.18,-6.74,5.27,-23.14,-1.13,0.03,0.32,5.0086
0.04,-1.0,-0.44,3.16,1.36,-1.5,-7.03,6.15,-22.56,-1.15,-0.03,0.29,5.0823
0.04,-1.16,-0.18,-22.22,20.27,2.37,-7.62,5.86,-24.02,-1.41,-0.03,0.22,5.1561
0.1,-0.8,-0.65,0.0,-1.04,-1.58,-7.91,7.32,-24.61,-0.88,-0.1,0.33,5.2298
0.01,-1.0,-0.26,11.04,-3.28,6.69,-7.91,7.32,-24.61,-1.32,-0.01,0.31,5.3035
0.02,-0.8,-0.4,9.19,1.21,-0.05,-8.79,8.79,-25.2,-1.11,-0.03,0.41,5.3773
0.02,-0.84,-0.51,15.63,3.73,8.67,-8.79,8.79,-25.49,-1.03,-0.02,0.44,5.451
-0.05,-0.97,-0.37,10.26,3.88,4.23,-9.38,8.2,-25.49,-1.2,0.05,0.44,5.5247
-0.05,-1.02,-0.5,-1.97,-3.51,1.76,-10.25,9.96,-25.49,-1.11,0.04,0.55,5.5984
0.21,-1.24,-0.25,1.82,9.13,16.49,-11.43,9.67,-26.07,-1.32,-0.16,0.22,5.6722
0.01,-0.68,-0.59,2.94,-19.02,-14.73,-11.43,10.55,-26.66,-0.86,-0.01,0.67,5.746
0.09,-1.01,-0.27,17.05,-8.6,2.2,-11.13,10.55,-27.54,-1.29,-0.08,0.33,5.8197
0.1,-0.92,-0.44,8.73,6.68,1.66,-12.3,10.84,-27.83,-1.12,-0.1,0.38,5.8934
0.05,-0.89,-0.48,6.61,-0.21,0.89,-12.3,11.43,-27.83,-1.08,-0.05,0.48,5.9671
0.02,-0.94,-0.37,-7.93,11.93,-0.05,-12.3,12.01,-29.59,-1.19,-0.02,0.46,6.0408
0.04,-0.96,-0.43,-7.53,6.71,-8.28,-13.48,12.3,-30.47,-1.15,-0.04,0.45,6.1146
0.07,-1.09,-0.54,9.06,10.24,-0.14,-13.48,11.72,-31.35,-1.11,-0.06,0.41,6.1883
-0.18,-0.79,-0.39,-10.25,0.13,-10.63,-14.36,12.01,-33.11,-1.07,0.2,0.75,6.2622
0.04,-0.97,-0.31,18.94,4.34,6.0,-14.06,11.13,-33.69,-1.25,-0.04,0.34,6.3357
-0.01,-0.87,-0.38,2.75,4.63,-9.63,-14.36,10.84,-33.98,-1.16,0.01,0.42,6.4095
-0.03,-0.83,-0.44,6.21,-7.0,-1.85,-14.06,10.84,-34.57,-1.08,0.03,0.46,6.4832
0.01,-0.93,-0.39,-0.65,-5.92,8.53,-14.36,10.84,-36.04,-1.18,-0.01,0.37,6.5571
-0.02,-1.01,-0.4,-14.92,-11.25,-0.37,-16.11,10.25,-36.33,-1.2,0.02,0.38,6.6307
-0.01,-0.99,-0.56,7.64,-14.69,2.68,-15.53,10.84,-36.62,-1.05,0.01,0.43,6.7044
0.01,-0.92,-0.45,-5.79,-12.24,-1.22,-15.82,10.25,-37.21,-1.12,-0.01,0.35,6.7783
0.01,-0.96,-0.27,-2.14,-10.81,-2.0,-16.41,9.67,-37.79,-1.3,-0.01,0.28,6.8519
0.05,-0.81,-0.45,13.52,-5.59,1.69,-15.82,9.08,-37.79,-1.06,-0.06,0.26,6.9217
0.07,-0.89,-0.45,10.13,-4.47,2.18,-15.82,8.5,-38.09,-1.1,-0.07,0.21,6.9954
0.0,-0.91,-0.43,1.08,8.93,-1.43,-15.82,7.91,-38.96,-1.13,-0.0,0.27,7.0691
