Ax,Ay,Az,Gx,Gy,Gz,Mx,My,MZ,Roll,Pitch,Yaw,Time
-0.43,-0.85,-0.37,2.56,6.09,-37.8,0.29,-33.11,-31.93,-0.98,0.44,-0.43,0.0013
-0.29,-0.91,-0.4,16.68,11.92,-18.3,0.88,-32.81,-30.76,-1.08,0.28,-0.59,0.0018
-0.28,-0.93,-0.43,55.17,15.88,11.09,1.17,-33.4,-30.76,-1.06,0.27,-0.61,0.0022
-0.39,-0.88,-0.49,122.66,14.09,-20.85,1.17,-33.4,-29.0,-0.95,0.37,-0.57,0.0026
-0.17,-1.08,-0.16,80.14,10.61,4.72,2.05,-34.28,-27.25,-1.36,0.15,-0.75,0.003
-0.28,-0.76,-0.05,45.46,9.15,-10.92,2.34,-33.69,-27.54,-1.21,0.36,-0.55,0.0034
-0.13,-0.93,-0.15,70.33,22.24,-15.33,2.93,-33.4,-26.07,-1.36,0.14,-0.77,0.0038
-0.19,-0.82,-0.08,15.9,1.85,-24.38,3.52,-33.69,-25.49,-1.33,0.22,-0.7,0.0041
-0.15,-1.0,-0.07,5.39,0.95,-9.92,3.22,-34.28,-25.78,-1.41,0.14,-0.78,0.0045
-0.27,-0.93,-0.0,0.08,-12.06,-9.83,3.22,-33.69,-25.78,-1.29,0.28,-0.64,0.0049
-0.18,-0.88,0.05,-12.52,-2.3,4.4,3.52,-33.98,-26.07,-1.36,0.2,-0.71,0.0053
-0.19,-0.85,0.01,1.39,13.7,12.6,2.64,-33.4,-25.78,-1.35,0.22,-0.7,0.0057
-0.23,-0.87,-0.05,12.1,1.75,-3.11,2.93,-33.69,-26.07,-1.31,0.25,-0.66,0.0061
-0.19,-0.94,-0.05,4.3,4.04,7.26,3.22,-33.11,-25.78,-1.36,0.2,-0.71,0.0064
-0.23,-0.88,-0.05,2.04,-4.75,1.6,2.64,-33.98,-26.37,-1.31,0.25,-0.66,0.0068
-0.24,-0.8,-0.03,-0.34,1.0,4.43,2.93,-32.81,-25.49,-1.28,0.29,-0.63,0.0072
-0.28,-0.82,-0.03,-6.1,-9.79,0.25,2.05,-32.52,-26.37,-1.24,0.33,-0.58,0.0076
-0.23,-0.89,-0.0,0.09,2.3,2.61,2.93,-33.11,-25.78,-1.31,0.26,-0.66,0.0079
-0.2,-0.9,-0.03,6.58,5.93,4.59,3.52,-33.4,-26.37,-1.35,0.22,-0.69,0.0083
-0.25,-0.88,-0.06,-0.12,-1.37,3.26,2.34,-33.4,-25.78,-1.28,0.28,-0.64,0.0087
-0.22,-0.86,-0.04,2.24,0.99,2.45,2.34,-32.81,-26.66,-1.31,0.25,-0.64,0.0091
-0.24,-0.86,-0.05,3.65,0.29,-1.11,3.22,-32.81,-26.37,-1.29,0.27,-0.63,0.0094
-0.24,-0.8,-0.05,5.36,0.44,-17.5,3.22,-32.81,-26.07,-1.27,0.3,-0.61,0.01
-0.15,-0.86,-0.05,-3.37,-15.57,-13.21,3.52,-33.11,-25.49,-1.39,0.17,-0.74,0.0104
-0.27,-0.86,-0.0,-0.88,-11.57,-2.2,3.22,-33.98,-25.78,-1.27,0.3,-0.63,0.0108
-0.15,-0.87,-0.02,1.39,2.36,2.12,2.64,-33.4,-26.07,-1.4,0.17,-0.74,0.0112
-0.19,-0.85,-0.04,4.76,0.02,-4.61,2.93,-33.98,-25.49,-1.34,0.22,-0.71,0.0115
-0.2,-0.9,-0.03,3.75,-0.49,-8.26,4.1,-34.28,-25.49,-1.35,0.22,-0.71,0.0119
-0.22,-0.84,-0.03,-2.56,-2.98,-7.98,3.81,-34.28,-26.07,-1.31,0.26,-0.66,0.0123
-0.23,-0.81,-0.0,-15.7,-4.26,-11.31,3.81,-33.69,-25.78,-1.29,0.28,-0.65,0.0127
-0.21,-0.93,-0.07,7.35,-8.03,-13.96,3.52,-34.57,-26.37,-1.34,0.22,-0.7,0.0131
-0.21,-0.87,-0.06,4.18,-10.71,-8.86,3.52,-33.69,-26.07,-1.33,0.24,-0.68,0.0135
-0.11,-0.88,-0.05,4.33,-6.08,-5.34,4.1,-34.28,-25.2,-1.43,0.13,-0.8,0.0139
-0.16,-0.9,-0.02,2.25,-9.53,-11.58,3.81,-34.86,-26.07,-1.39,0.18,-0.75,0.0143
-0.08,-0.9,-0.03,8.13,5.42,-2.46,3.81,-33.98,-25.78,-1.48,0.09,-0.83,0.0146
-0.1,-0.93,-0.05,6.09,2.36,-6.74,3.81,-34.57,-26.07,-1.45,0.1,-0.82,0.015
-0.08,-0.94,-0.03,4.62,2.56,-0.5,3.52,-34.28,-25.49,-1.48,0.09,-0.84,0.0154
-0.12,-0.9,-0.01,1.38,3.18,-3.86,4.39,-34.57,-26.07,-1.44,0.13,-0.79,0.0158
-0.06,-0.89,-0.03,1.91,6.43,-5.02,3.81,-34.86,-25.49,-1.5,0.06,-0.87,0.0162
-0.06,-0.92,-0.12,5.35,1.9,-1.58,4.39,-35.16,-26.66,-1.43,0.06,-0.85,0.0166
-0.08,-0.92,-0.05,1.03,-1.83,-0.32,4.1,-34.57,-25.78,-1.47,0.09,-0.83,0.017
-0.08,-0.91,-0.04,0.9,1.72,3.68,4.69,-33.98,-25.49,-1.47,0.09,-0.83,0.0173
-0.13,-0.86,-0.06,0.99,-4.41,-5.42,3.81,-34.28,-26.07,-1.4,0.15,-0.77,0.0177
-0.08,-0.94,-0.05,3.91,3.23,0.5,4.1,-34.57,-25.49,-1.47,0.09,-0.85,0.0181
-0.13,-0.89,-0.06,1.72,-2.46,-1.06,4.1,-34.28,-25.2,-1.41,0.14,-0.79,0.0185
-0.13,-0.87,-0.07,0.82,-6.42,-0.96,3.52,-33.69,-26.07,-1.41,0.14,-0.77,0.0189
-0.07,-0.94,-0.04,3.89,2.81,2.24,3.81,-35.16,-25.49,-1.48,0.08,-0.86,0.0193
-0.11,-0.92,-0.09,3.23,1.96,2.6,4.39,-34.28,-25.49,-1.42,0.12,-0.8,0.0196
-0.1,-0.92,-0.05,1.99,-1.15,-1.88,3.81,-34.86,-25.49,-1.45,0.11,-0.82,0.02
-0.13,-0.89,-0.07,2.21,-2.83,-2.75,4.1,-34.28,-25.78,-1.41,0.14,-0.78,0.0204
-0.09,-0.93,-0.06,4.15,1.75,-0.04,3.81,-34.28,-26.07,-1.45,0.09,-0.82,0.0208
-0.09,-0.93,-0.06,5.07,1.69,0.89,4.1,-34.28,-25.49,-1.45,0.1,-0.83,0.0212
-0.12,-0.89,-0.05,2.07,-1.57,0.98,4.1,-34.28,-25.78,-1.43,0.14,-0.78,0.0216
-0.13,-0.91,-0.04,2.84,-0.4,1.27,3.52,-34.86,-25.78,-1.42,0.14,-0.79,0.0219
-0.12,-0.89,-0.07,1.14,-1.08,0.95,3.81,-35.16,-25.2,-1.42,0.13,-0.82,0.0223
-0.07,-0.89,-0.05,3.57,2.48,0.6,2.93,-33.98,-26.07,-1.47,0.08,-0.83,0.0227
-0.11,-0.93,-0.05,5.33,1.79,-3.59,3.81,-34.28,-24.9,-1.44,0.12,-0.82,0.0231
-0.1,-0.92,-0.06,5.31,0.38,-2.84,4.69,-33.98,-24.9,-1.45,0.1,-0.83,0.0235
-0.14,-0.88,-0.05,-0.36,-6.07,-0.94,4.1,-34.28,-26.07,-1.41,0.15,-0.76,0.0239
-0.11,-0.92,-0.04,0.43,-2.87,0.87,3.81,-34.86,-25.78,-1.45,0.12,-0.81,0.0242
-0.12,-0.9,-0.06,3.0,-2.0,0.94,4.1,-34.28,-25.49,-1.42,0.13,-0.79,0.0246
-0.12,-0.89,-0.02,2.41,1.51,-0.76,4.98,-34.57,-25.78,-1.43,0.13,-0.79,0.025
-0.1,-0.93,-0.05,4.53,1.46,1.3,4.1,-34.57,-25.78,-1.45,0.11,-0.82,0.0254
-0.14,-0.92,-0.06,0.7,-4.38,-0.27,3.52,-34.28,-25.49,-1.4,0.16,-0.77,0.0258
-0.11,-0.89,-0.05,0.85,-4.71,0.75,4.98,-34.28,-25.78,-1.44,0.12,-0.8,0.0261
-0.12,-0.92,-0.04,4.61,0.59,-0.15,4.1,-34.86,-25.78,-1.44,0.13,-0.8,0.0265
-0.1,-0.89,-0.04,3.34,0.58,-2.78,4.39,-34.57,-25.2,-1.45,0.11,-0.82,0.0269
-0.11,-0.91,-0.05,3.66,-0.3,2.57,3.81,-34.86,-25.49,-1.43,0.12,-0.81,0.0273
-0.14,-0.89,-0.04,0.5,-4.62,-0.18,4.39,-34.28,-24.61,-1.41,0.15,-0.79,0.0277
-0.12,-0.89,-0.05,1.11,-1.56,0.82,4.1,-33.98,-25.49,-1.42,0.14,-0.79,0.0281
-0.13,-0.89,-0.03,1.08,-1.46,-0.53,3.81,-34.57,-25.49,-1.42,0.14,-0.79,0.0284
-0.14,-0.87,-0.04,-1.59,-2.11,2.46,3.81,-33.98,-24.9,-1.4,0.16,-0.78,0.0288
-0.16,-0.88,-0.04,2.11,-1.98,-0.17,3.52,-33.98,-26.37,-1.39,0.17,-0.73,0.0292
-0.13,-0.92,-0.05,1.12,-1.07,1.49,3.81,-34.28,-26.07,-1.42,0.14,-0.78,0.0296
-0.13,-0.9,-0.06,2.75,-1.47,0.11,3.81,-33.98,-25.49,-1.41,0.14,-0.78,0.03
-0.12,-0.91,-0.04,3.91,0.31,-1.57,4.1,-35.16,-25.49,-1.43,0.13,-0.81,0.0304
-0.13,-0.88,-0.05,2.97,-0.66,2.34,3.52,-34.86,-26.37,-1.42,0.14,-0.78,0.0307
-0.12,-0.94,-0.05,4.84,3.0,2.1,4.69,-34.28,-25.2,-1.43,0.13,-0.8,0.0311
-0.11,-0.92,-0.06,4.79,1.99,3.14,3.52,-34.57,-25.78,-1.43,0.12,-0.8,0.0315
-0.12,-0.91,-0.05,1.88,1.1,2.71,3.81,-34.86,-26.07,-1.43,0.13,-0.8,0.0319
-0.14,-0.89,-0.05,0.91,-4.1,-2.74,3.52,-34.57,-26.07,-1.4,0.16,-0.76,0.0323
-0.14,-0.9,-0.05,1.12,0.26,2.43,3.81,-34.57,-26.37,-1.41,0.15,-0.76,0.0326
-0.16,-0.91,-0.05,-0.29,-5.25,1.64,3.81,-34.57,-26.07,-1.39,0.17,-0.75,0.033
-0.14,-0.93,-0.05,1.17,-0.02,7.85,3.81,-34.57,-25.78,-1.41,0.15,-0.78,0.0334
-0.13,-0.91,-0.04,2.82,0.62,8.68,3.22,-33.98,-26.07,-1.42,0.15,-0.77,0.0338
-0.15,-0.93,-0.07,2.57,-2.91,7.48,3.22,-33.98,-26.37,-1.39,0.16,-0.75,0.0342
-0.14,-0.89,-0.04,2.97,1.39,13.11,3.22,-34.28,-26.07,-1.41,0.16,-0.76,0.0345
-0.17,-0.85,-0.04,3.04,1.07,9.73,2.93,-33.98,-25.78,-1.37,0.2,-0.72,0.0349
-0.2,-0.89,-0.06,2.6,-6.39,7.68,2.93,-34.28,-25.78,-1.34,0.22,-0.71,0.0353
-0.21,-0.92,-0.07,1.88,-8.59,9.66,2.34,-33.4,-25.2,-1.34,0.22,-0.71,0.0357
-0.22,-0.82,-0.04,-5.01,-9.14,10.59,3.22,-33.4,-25.49,-1.3,0.27,-0.66,0.0361
-0.24,-0.88,-0.05,1.84,-4.98,11.64,2.34,-33.4,-26.37,-1.31,0.26,-0.65,0.0365
-0.22,-0.9,-0.05,3.38,0.43,13.45,2.93,-32.81,-26.66,-1.33,0.24,-0.66,0.0369
-0.26,-0.85,-0.09,0.3,-4.08,7.93,2.93,-33.4,-25.78,-1.26,0.3,-0.63,0.0372
-0.22,-0.86,-0.05,2.64,2.49,10.86,2.05,-33.11,-25.78,-1.32,0.25,-0.67,0.0376
-0.3,-0.84,-0.06,0.76,-7.3,8.5,2.05,-33.98,-25.78,-1.22,0.34,-0.6,0.038
-0.28,-0.86,-0.08,3.95,-5.75,3.66,2.34,-33.11,-25.2,-1.24,0.32,-0.62,0.0384
-0.29,-0.84,-0.05,3.59,-3.62,4.71,1.76,-33.11,-25.78,-1.24,0.33,-0.6,0.0388
-0.3,-0.81,-0.03,-2.99,-2.83,1.25,1.76,-33.69,-25.78,-1.22,0.35,-0.59,0.0392
-0.3,-0.85,-0.07,0.47,-1.34,3.02,2.34,-33.11,-26.07,-1.22,0.34,-0.58,0.0395
-0.28,-0.81,-0.06,4.92,-1.02,0.24,1.76,-32.81,-25.49,-1.23,0.33,-0.6,0.0399
-0.28,-0.87,-0.04,3.41,2.04,0.73,2.34,-33.11,-26.07,-1.25,0.32,-0.6,0.0403
-0.3,-0.85,-0.05,1.32,-3.28,1.27,1.76,-32.81,-25.78,-1.22,0.34,-0.58,0.0407
-0.29,-0.85,-0.09,0.46,-2.7,1.21,2.05,-33.11,-25.78,-1.23,0.33,-0.6,0.0411
-0.31,-0.82,-0.06,-1.46,-6.35,-2.49,2.05,-33.4,-25.78,-1.2,0.36,-0.57,0.0414
-0.27,-0.92,0.0,2.76,-1.57,-4.11,1.76,-33.11,-26.07,-1.29,0.28,-0.63,0.0418
-0.29,-0.86,-0.1,-7.41,6.26,-6.1,1.76,-33.4,-26.07,-1.23,0.33,-0.6,0.0422
-0.25,-0.78,-0.05,-8.36,-10.71,12.66,1.46,-33.11,-25.49,-1.25,0.31,-0.62,0.0426
-0.28,-0.85,-0.06,7.9,-4.96,-8.34,1.76,-32.81,-25.78,-1.24,0.32,-0.6,0.043
-0.28,-0.8,-0.06,7.84,2.56,0.7,1.76,-32.81,-25.2,-1.23,0.33,-0.6,0.0434
-0.3,-0.86,-0.1,6.36,-1.66,-3.33,2.64,-32.81,-25.49,-1.22,0.33,-0.6,0.0437
-0.28,-0.88,-0.08,6.72,-2.37,-1.79,1.76,-32.81,-26.07,-1.25,0.31,-0.61,0.0441
-0.25,-0.86,-0.06,3.52,7.64,8.3,1.17,-32.81,-26.37,-1.28,0.28,-0.63,0.0445
-0.32,-0.81,-0.04,-1.57,-1.61,1.01,1.17,-32.81,-25.78,-1.19,0.38,-0.55,0.0449
-0.3,-0.85,-0.03,2.56,1.74,2.49,1.76,-32.81,-25.2,-1.23,0.33,-0.6,0.0453
-0.24,-0.91,-0.11,-23.81,12.68,128.11,1.17,-32.23,-25.78,-1.28,0.26,-0.65,0.0457
-0.06,-0.97,-0.31,43.85,37.38,-42.61,0.59,-32.52,-26.66,-1.26,0.06,-0.84,0.046
-0.44,-0.76,-0.13,-3.79,-12.81,1.59,-0.29,-32.23,-26.07,-1.03,0.52,-0.43,0.0464
-0.41,-0.83,-0.11,4.34,-16.37,3.29,0.88,-32.52,-25.78,-1.1,0.45,-0.49,0.0468
-0.28,-1.07,-0.15,51.73,80.59,-20.2,0.88,-32.23,-26.95,-1.28,0.25,-0.64,0.0472
-0.41,-0.7,-0.12,-3.56,61.79,30.89,0.88,-33.11,-26.95,-1.02,0.53,-0.41,0.0476
-0.32,-0.5,-0.28,-69.18,-20.52,51.8,0.0,-33.69,-27.54,-0.87,0.51,-0.47,0.048
-0.34,-1.05,-0.07,13.89,8.6,53.89,0.29,-32.52,-27.54,-1.25,0.32,-0.57,0.0484
-0.31,-0.86,-0.23,46.39,33.53,52.01,-1.17,-31.05,-27.54,-1.15,0.34,-0.56,0.0488
-0.41,-0.76,-0.11,37.71,0.05,-40.6,0.59,-32.52,-27.54,-1.06,0.49,-0.42,0.0492
-0.51,-0.73,-0.06,38.11,43.33,-41.85,1.46,-32.23,-27.25,-0.96,0.61,-0.31,0.0496
-0.48,-0.55,-0.13,-9.05,55.74,5.58,1.17,-33.4,-27.83,-0.84,0.7,-0.23,0.05
-0.04,-0.64,-0.15,-15.28,190.7,144.01,-0.29,-33.11,-30.47,-1.33,0.07,-0.78,0.0504
-0.81,-0.8,-0.32,-65.88,51.51,-110.86,0.0,-34.28,-32.23,-0.74,0.76,-0.09,0.0508
-0.07,-0.72,-0.77,-91.41,119.8,42.26,-0.29,-36.04,-35.16,-0.75,0.07,-0.92,0.0512
-0.72,0.74,-0.18,-250.0,90.5,125.53,-7.62,-36.33,-39.55,0.78,0.76,3.12,0.0516
-0.69,-0.47,-1.02,-9.48,-49.13,40.2,-7.32,-36.62,-38.67,-0.37,0.55,-0.75,0.052
-0.27,0.06,-0.77,-1.34,-4.08,10.76,-5.86,-36.33,-37.21,0.07,0.34,-1.97,0.0524
-0.47,-0.56,-0.92,0.35,18.39,-36.89,-5.86,-36.62,-38.38,-0.5,0.41,-0.77,0.0528
-0.4,-0.52,-0.92,-18.39,2.9,-6.95,-5.86,-36.04,-38.38,-0.47,0.36,-0.87,0.0533
-0.38,-0.57,-0.92,-13.15,5.07,-6.24,-6.45,-36.04,-38.67,-0.52,0.33,-0.86,0.0537
-0.33,-0.5,-0.91,-4.14,-1.53,-8.32,-6.45,-36.62,-38.67,-0.48,0.31,-0.95,0.0541
-0.4,-0.42,-0.79,-29.08,-37.3,-85.08,-7.03,-35.74,-38.67,-0.44,0.42,-0.85,0.0545
-0.35,-0.48,-0.92,-42.85,-30.85,-77.93,-6.15,-35.74,-38.67,-0.45,0.33,-0.95,0.0549
-0.28,-0.39,-0.88,-63.25,-51.54,-62.28,-7.03,-35.45,-38.38,-0.4,0.29,-1.11,0.0553
-0.23,-0.56,-0.99,15.72,-4.81,25.54,-7.32,-34.86,-38.67,-0.5,0.2,-1.05,0.0557
-0.25,-0.45,-0.94,37.99,7.08,-18.84,-6.45,-34.86,-38.96,-0.43,0.23,-1.08,0.0561
-0.29,-0.47,-0.89,50.13,15.8,2.21,-6.15,-35.74,-39.55,-0.46,0.28,-0.97,0.0565
-0.41,-0.54,-0.84,53.09,-9.35,-83.76,-5.57,-34.86,-38.96,-0.52,0.39,-0.73,0.0569
-0.28,-0.71,-0.88,42.11,-15.77,-39.7,-3.52,-35.45,-38.38,-0.66,0.24,-0.78,0.0573
-0.16,-0.66,-0.95,22.77,-3.68,5.01,-3.52,-35.45,-39.55,-0.6,0.13,-0.93,0.0577
-0.21,-0.5,-0.82,-20.58,5.3,-35.97,-3.81,-34.57,-38.96,-0.53,0.22,-0.91,0.0581
-0.03,-0.79,-0.81,5.96,25.64,13.01,-3.22,-36.04,-40.14,-0.77,0.03,-0.92,0.0585
-0.13,-1.03,-0.71,54.85,-18.17,-22.93,-2.05,-35.16,-39.55,-0.96,0.1,-0.74,0.0589
-0.01,-0.43,-0.74,-17.71,56.36,32.96,-2.64,-36.33,-40.14,-0.52,0.01,-1.11,0.0593
-0.25,-1.11,-1.12,14.53,-4.14,-38.37,-3.52,-36.33,-41.31,-0.77,0.16,-0.77,0.0597
0.05,-0.64,-0.87,10.52,8.32,12.21,-3.22,-36.62,-41.31,-0.63,-0.04,-1.07,0.0601
-0.06,-0.81,-0.86,-0.77,4.55,3.87,-3.22,-36.33,-41.02,-0.76,0.05,-0.9,0.0605
-0.11,-0.73,-0.83,1.18,-6.58,-11.24,-3.52,-36.33,-41.02,-0.72,0.1,-0.88,0.0609
-0.07,-0.69,-0.83,2.16,-5.24,-13.33,-3.52,-36.04,-41.02,-0.69,0.06,-0.93,0.0613
-0.08,-0.7,-0.86,1.2,-3.46,-13.24,-3.52,-36.62,-41.31,-0.69,0.07,-0.93,0.0617
-0.03,-0.75,-0.84,2.79,2.27,1.27,-2.93,-36.91,-41.31,-0.73,0.02,-0.95,0.062
-0.05,-0.74,-0.82,-2.86,1.3,0.83,-3.22,-36.62,-40.72,-0.73,0.04,-0.93,0.0624
-0.09,-0.73,-0.87,-2.03,2.06,0.02,-3.22,-36.62,-40.43,-0.7,0.08,-0.92,0.0628
-0.07,-0.71,-0.88,0.15,2.41,4.03,-3.81,-36.04,-41.02,-0.68,0.06,-0.94,0.0632
-0.08,-0.71,-0.88,1.69,-2.99,-6.11,-3.52,-36.62,-41.31,-0.68,0.07,-0.94,0.0636
-0.07,-0.72,-0.85,1.86,0.02,-2.54,-3.81,-36.33,-41.6,-0.7,0.06,-0.93,0.064
-0.05,-0.7,-0.85,-3.68,2.03,-5.88,-3.52,-36.91,-41.89,-0.69,0.04,-0.95,0.0644
-0.08,-0.75,-0.9,3.79,-1.82,-5.49,-3.52,-36.62,-41.31,-0.69,0.07,-0.93,0.0648
-0.06,-0.71,-0.86,-0.85,0.7,-1.08,-3.52,-36.62,-40.72,-0.69,0.05,-0.96,0.0652
-0.07,-0.71,-0.88,1.6,-1.39,2.67,-4.1,-36.62,-41.6,-0.68,0.06,-0.95,0.0656
-0.06,-0.71,-0.9,1.31,1.07,3.4,-3.81,-36.91,-41.02,-0.67,0.05,-0.97,0.0659
-0.07,-0.71,-0.89,1.86,-0.43,-4.17,-3.81,-35.74,-41.02,-0.67,0.06,-0.95,0.0663
-0.06,-0.71,-0.87,1.63,-2.09,-0.53,-4.1,-36.91,-41.31,-0.68,0.05,-0.96,0.0667
-0.04,-0.71,-0.84,-0.56,-0.71,8.98,-4.1,-36.91,-41.31,-0.7,0.04,-0.97,0.0671
-0.04,-0.74,-0.89,2.1,6.23,21.74,-4.39,-36.33,-41.89,-0.7,0.04,-0.96,0.0675
-0.07,-0.67,-0.92,2.12,0.48,7.13,-4.1,-36.04,-42.19,-0.63,0.06,-0.97,0.0678
-0.07,-0.69,-0.89,3.26,-3.27,-4.94,-4.1,-36.33,-41.6,-0.66,0.07,-0.96,0.0682
-0.04,-0.68,-0.9,0.06,6.42,11.43,-4.1,-36.04,-40.72,-0.64,0.03,-1.01,0.0686
-0.2,-0.66,-0.86,3.75,-13.47,-26.4,-4.39,-36.33,-42.77,-0.64,0.19,-0.83,0.069
-0.1,-0.69,-0.9,3.44,-3.94,-6.86,-4.98,-36.33,-41.02,-0.65,0.09,-0.96,0.0694
-0.07,-0.7,-0.9,4.33,1.59,7.63,-4.39,-35.45,-41.31,-0.66,0.06,-0.96,0.0698
-0.08,-0.67,-0.9,3.79,-0.6,-4.44,-4.69,-36.33,-41.02,-0.64,0.07,-0.98,0.0702
-0.08,-0.68,-0.88,1.46,-2.01,-1.58,-4.98,-36.62,-41.89,-0.66,0.08,-0.96,0.0706
-0.09,-0.69,-0.91,3.27,-1.71,-2.25,-4.39,-36.04,-41.31,-0.65,0.08,-0.96,0.0709
-0.09,-0.67,-0.89,1.95,-1.28,1.25,-4.98,-35.74,-41.31,-0.65,0.08,-0.96,0.0713
-0.1,-0.67,-0.89,1.68,-0.64,-6.14,-5.27,-36.33,-41.89,-0.64,0.09,-0.96,0.0717
-0.11,-0.7,-0.92,0.67,1.37,-6.61,-4.69,-36.91,-41.89,-0.64,0.1,-0.95,0.0721
-0.08,-0.68,-0.89,3.05,0.22,1.43,-4.69,-36.04,-41.6,-0.66,0.07,-0.96,0.0725
-0.08,-0.69,-0.92,2.94,0.21,0.48,-4.98,-36.33,-41.6,-0.65,0.07,-0.98,0.0729
-0.1,-0.65,-0.86,-0.4,-0.7,-6.23,-5.27,-36.33,-41.31,-0.65,0.1,-0.96,0.0733
-0.12,-0.69,-0.9,0.47,-2.37,-0.75,-4.69,-35.74,-41.89,-0.65,0.11,-0.92,0.0736
-0.1,-0.65,-0.9,1.37,1.94,2.14,-4.98,-36.33,-42.77,-0.62,0.09,-0.96,0.074
-0.08,-0.68,-0.93,3.47,-0.81,0.07,-4.39,-35.74,-41.02,-0.63,0.07,-0.98,0.0744
-0.09,-0.66,-0.9,2.0,-0.11,0.21,-4.69,-36.33,-41.6,-0.63,0.08,-0.97,0.0748
-0.09,-0.69,-0.9,1.47,-1.01,-0.14,-4.39,-35.74,-41.31,-0.65,0.08,-0.95,0.0752
-0.09,-0.65,-0.9,1.14,0.31,-0.54,-5.86,-36.62,-42.19,-0.62,0.08,-0.99,0.0756
-0.1,-0.67,-0.92,0.67,-1.34,-1.89,-5.27,-35.74,-41.6,-0.62,0.09,-0.97,0.076
-0.08,-0.66,-0.91,1.21,-0.29,3.01,-4.98,-36.04,-41.89,-0.63,0.08,-0.98,0.0763
-0.09,-0.66,-0.92,2.62,0.0,3.27,-5.27,-35.74,-41.89,-0.62,0.08,-0.98,0.0767
-0.09,-0.66,-0.91,2.4,0.69,2.38,-5.86,-36.33,-42.48,-0.62,0.08,-0.99,0.0771
-0.09,-0.67,-0.93,3.16,0.02,2.81,-4.98,-36.62,-41.6,-0.62,0.08,-0.99,0.0775
-0.09,-0.66,-0.91,2.48,-0.56,1.24,-4.98,-36.33,-42.19,-0.62,0.08,-0.98,0.0779
-0.1,-0.66,-0.92,2.87,-0.4,1.47,-4.98,-35.74,-41.6,-0.62,0.09,-0.97,0.0782
-0.11,-0.66,-0.92,2.11,-0.67,-0.23,-5.57,-36.04,-41.6,-0.62,0.1,-0.98,0.0786
-0.1,-0.66,-0.9,0.69,-1.11,1.36,-5.57,-35.74,-41.89,-0.62,0.09,-0.98,0.079
-0.14,-0.7,-0.95,3.62,-9.76,-7.89,-5.86,-36.33,-41.6,-0.63,0.11,-0.96,0.0794
-0.13,-0.62,-0.9,-2.22,-3.52,-10.68,-5.27,-36.04,-41.89,-0.6,0.12,-0.96,0.0798
-0.11,-0.68,-0.92,5.33,-2.75,-2.62,-4.69,-35.45,-41.31,-0.63,0.1,-0.95,0.0802
-0.11,-0.66,-0.92,-2.83,5.13,-0.73,-5.27,-36.04,-41.6,-0.62,0.09,-0.98,0.0806
-0.1,-0.65,-0.92,2.25,0.17,3.59,-5.86,-35.74,-42.19,-0.62,0.09,-0.98,0.081
-0.1,-0.66,-0.93,3.68,1.99,4.5,-5.27,-35.74,-41.31,-0.62,0.09,-0.98,0.0813
-0.1,-0.65,-0.93,2.41,-0.41,2.48,-4.69,-36.62,-41.89,-0.61,0.09,-0.98,0.0817
-0.12,-0.65,-0.92,2.56,-0.85,-0.6,-5.57,-36.33,-41.6,-0.61,0.1,-0.98,0.0821
-0.12,-0.65,-0.92,1.93,-0.83,-0.42,-6.15,-36.04,-42.48,-0.61,0.11,-0.97,0.0825
-0.12,-0.66,-0.93,7.71,-2.27,5.33,-4.98,-35.45,-41.6,-0.62,0.1,-0.95,0.0829
-0.11,-0.68,-0.94,6.96,-7.55,9.48,-4.98,-35.45,-41.89,-0.62,0.1,-0.95,0.0833
-0.09,-0.63,-0.85,8.21,3.11,28.34,-5.57,-35.45,-41.89,-0.63,0.08,-0.97,0.0836
-0.11,-0.66,-0.92,3.6,-1.47,-2.17,-5.27,-35.74,-41.6,-0.62,0.1,-0.97,0.084
-0.12,-0.63,-0.92,-4.23,2.19,-2.04,-5.27,-35.74,-42.19,-0.6,0.11,-0.96,0.0844
-0.14,-0.67,-0.91,1.05,-0.61,1.06,-5.57,-35.74,-41.89,-0.63,0.12,-0.94,0.0848
-0.12,-0.63,-0.92,-1.14,0.15,-1.56,-4.98,-35.74,-42.19,-0.6,0.11,-0.95,0.0852
-0.11,-0.65,-0.93,2.72,-0.7,-0.68,-5.57,-35.45,-41.6,-0.61,0.1,-0.98,0.0856
-0.12,-0.65,-0.92,1.95,-1.37,1.52,-5.57,-35.74,-41.89,-0.61,0.1,-0.97,0.0859
-0.11,-0.66,-0.93,2.37,-0.34,-0.34,-5.57,-36.04,-42.19,-0.61,0.1,-0.98,0.0863
-0.1,-0.66,-0.94,2.07,-0.79,4.49,-6.15,-35.45,-42.19,-0.61,0.09,-0.99,0.0867
-0.14,-0.65,-0.93,3.5,-0.43,-1.33,-5.57,-35.74,-42.77,-0.61,0.12,-0.94,0.0871
-0.12,-0.63,-0.92,2.72,1.21,1.96,-5.57,-35.74,-43.07,-0.6,0.11,-0.96,0.0875
-0.11,-0.64,-0.92,2.12,0.88,-0.87,-5.27,-36.04,-41.6,-0.61,0.1,-0.98,0.0879
-0.11,-0.67,-0.94,5.31,5.44,2.68,-5.27,-34.86,-42.19,-0.61,0.09,-0.96,0.0882
-0.13,-0.51,-1.05,11.54,-5.32,-9.21,-4.98,-35.74,-42.19,-0.44,0.11,-1.11,0.0886
-0.13,-0.64,-0.9,3.01,-0.99,-0.34,-5.27,-35.16,-42.48,-0.61,0.11,-0.94,0.089
-0.14,-0.64,-0.93,3.54,-7.71,1.91,-5.86,-35.16,-41.31,-0.59,0.12,-0.97,0.0894
-0.11,-0.67,-0.93,5.37,0.1,8.55,-5.86,-35.45,-42.19,-0.62,0.1,-0.97,0.0898
-0.13,-0.63,-0.91,3.23,-0.95,9.93,-5.86,-35.45,-41.89,-0.61,0.11,-0.96,0.0902
-0.12,-0.69,-0.97,2.01,-2.59,4.23,-5.86,-35.45,-41.6,-0.61,0.1,-0.97,0.0906
-0.15,-0.63,-0.93,2.27,-1.07,-1.93,-6.15,-35.74,-42.77,-0.59,0.13,-0.96,0.091
-0.14,-0.64,-0.93,2.69,-0.34,2.2,-4.98,-34.86,-41.89,-0.6,0.13,-0.93,0.0914
-0.15,-0.63,-0.92,1.54,-1.06,-2.94,-5.86,-35.45,-42.19,-0.59,0.14,-0.95,0.0917
-0.15,-0.64,-0.93,2.5,-1.0,0.24,-5.57,-35.16,-42.19,-0.6,0.13,-0.94,0.0921
-0.15,-0.62,-0.93,2.48,-1.37,-2.59,-5.86,-36.04,-41.89,-0.59,0.14,-0.97,0.0925
-0.15,-0.64,-0.93,2.95,-1.37,-0.47,-6.74,-35.45,-41.89,-0.6,0.13,-0.97,0.0929
-0.14,-0.64,-0.94,3.13,-0.28,2.19,-5.86,-35.16,-42.19,-0.59,0.12,-0.95,0.0933
-0.15,-0.62,-0.92,2.37,-0.31,-3.04,-6.45,-35.74,-42.19,-0.59,0.14,-0.96,0.0937
-0.16,-0.63,-0.93,3.33,-0.8,-0.22,-5.86,-34.86,-41.6,-0.59,0.14,-0.95,0.0941
-0.13,-0.63,-0.93,1.67,-0.79,3.64,-5.27,-35.16,-41.6,-0.59,0.12,-0.96,0.0945
-0.16,-0.63,-0.93,1.26,-0.34,6.57,-6.15,-35.16,-41.31,-0.59,0.14,-0.96,0.0949
-0.15,-0.63,-0.93,2.2,-0.03,6.98,-5.86,-35.45,-41.89,-0.59,0.13,-0.96,0.0953
-0.16,-0.62,-0.93,0.98,-0.34,3.15,-6.74,-35.45,-42.19,-0.58,0.14,-0.97,0.0957
-0.15,-0.62,-0.93,1.72,0.08,1.59,-6.45,-34.86,-41.6,-0.58,0.13,-0.97,0.096
-0.14,-0.63,-0.94,3.17,0.43,5.71,-6.45,-34.86,-41.89,-0.59,0.12,-0.97,0.0964
-0.16,-0.63,-0.93,3.07,0.01,4.85,-6.45,-35.74,-41.6,-0.59,0.14,-0.97,0.0968
-0.17,-0.62,-0.94,3.4,-0.6,3.66,-7.03,-34.57,-42.77,-0.58,0.15,-0.95,0.0972
-0.18,-0.62,-0.95,3.68,-2.55,1.16,-6.45,-35.16,-41.89,-0.57,0.16,-0.95,0.0976
-0.19,-0.61,-0.92,3.46,-2.82,-1.17,-6.45,-35.74,-41.89,-0.57,0.17,-0.95,0.098
-0.17,-0.62,-0.92,3.06,-0.5,0.72,-6.74,-35.45,-41.89,-0.59,0.15,-0.96,0.0984
-0.17,-0.62,-0.93,4.23,-0.56,2.27,-6.45,-35.16,-41.02,-0.58,0.15,-0.97,0.0987
-0.19,-0.61,-0.93,2.91,-0.32,2.13,-6.74,-34.86,-41.89,-0.57,0.17,-0.94,0.0991
-0.19,-0.6,-0.92,3.3,-1.46,-4.75,-5.57,-34.57,-41.89,-0.56,0.17,-0.92,0.0995
-0.19,-0.63,-0.92,2.91,-1.89,-3.96,-6.15,-35.45,-42.19,-0.59,0.17,-0.92,0.0999
-0.18,-0.61,-0.93,2.16,-1.35,0.02,-6.45,-35.16,-41.6,-0.58,0.16,-0.95,0.1003
-0.18,-0.6,-0.93,1.94,-2.05,-1.59,-6.45,-34.57,-41.89,-0.57,0.17,-0.94,0.1007
-0.19,-0.63,-0.92,0.89,-2.02,-2.11,-7.03,-34.57,-42.48,-0.59,0.17,-0.91,0.1011
-0.2,-0.61,-0.93,0.37,-1.59,-8.94,-6.45,-35.16,-42.48,-0.57,0.18,-0.92,0.1015
-0.18,-0.59,-0.92,1.7,0.59,-2.58,-6.45,-34.86,-41.89,-0.56,0.16,-0.96,0.1018
-0.16,-0.62,-0.94,4.12,0.0,-2.56,-6.45,-35.45,-41.6,-0.58,0.14,-0.98,0.1022
-0.17,-0.62,-0.92,4.17,0.64,-2.24,-6.45,-35.45,-42.19,-0.59,0.15,-0.95,0.1026
-0.17,-0.6,-0.93,2.93,0.56,-1.54,-6.45,-34.86,-41.6,-0.57,0.15,-0.96,0.103
-0.18,-0.62,-0.94,4.4,0.14,-0.98,-6.45,-34.86,-42.19,-0.58,0.16,-0.94,0.1034
-0.17,-0.61,-0.93,2.74,-0.51,-1.05,-7.03,-35.16,-41.89,-0.58,0.15,-0.97,0.1038
-0.17,-0.62,-0.93,2.64,-1.27,-1.76,-7.03,-36.33,-42.77,-0.58,0.15,-0.96,0.1042
-0.18,-0.62,-0.93,2.59,-0.82,-0.34,-6.15,-35.74,-41.6,-0.58,0.16,-0.96,0.1046
-0.18,-0.6,-0.93,2.43,-0.82,-0.99,-6.15,-34.86,-41.89,-0.57,0.16,-0.94,0.1049
-0.17,-0.61,-0.93,2.63,-0.28,0.53,-5.57,-34.86,-42.19,-0.57,0.15,-0.93,0.1053
-0.17,-0.62,-0.93,1.95,-1.57,-1.95,-7.32,-35.16,-42.19,-0.58,0.15,-0.96,0.1057
-0.16,-0.62,-0.94,3.11,-0.92,1.67,-5.86,-35.74,-41.6,-0.58,0.14,-0.96,0.1061
-0.15,-0.6,-0.93,1.98,0.21,-4.34,-5.86,-35.16,-42.19,-0.57,0.14,-0.96,0.1065
-0.17,-0.63,-0.93,3.05,-0.98,-5.31,-6.45,-34.57,-42.19,-0.59,0.15,-0.93,0.1069
-0.17,-0.63,-0.93,1.7,-0.17,-4.2,-5.57,-34.57,-41.6,-0.59,0.15,-0.92,0.1072
-0.14,-0.63,-0.95,6.77,0.05,-4.54,-6.15,-35.45,-41.31,-0.58,0.12,-0.99,0.1076
-0.17,-0.56,-0.94,11.69,-6.46,-25.32,-6.74,-35.45,-42.48,-0.53,0.15,-1.01,0.108
-0.13,-0.66,-0.93,5.57,-6.72,-7.45,-5.27,-35.45,-41.31,-0.61,0.12,-0.96,0.1084
-0.12,-0.67,-0.88,-0.08,-2.33,-2.01,-6.45,-35.45,-41.89,-0.64,0.11,-0.94,0.1088
-0.15,-0.64,-0.91,-0.27,-2.74,0.08,-6.45,-35.16,-41.31,-0.6,0.14,-0.95,0.1092
-0.15,-0.63,-0.92,-1.53,-2.52,1.4,-6.45,-35.45,-41.6,-0.6,0.13,-0.97,0.1096
-0.14,-0.64,-0.92,-0.04,-1.84,1.77,-5.86,-35.45,-42.48,-0.6,0.13,-0.95,0.11
-0.14,-0.64,-0.93,-0.72,-0.24,1.22,-6.15,-35.16,-41.89,-0.6,0.13,-0.96,0.1104
-0.15,-0.63,-0.93,0.25,-0.85,1.99,-5.86,-35.45,-41.89,-0.59,0.14,-0.95,0.1108
-0.13,-0.66,-0.95,4.64,-0.05,-1.24,-6.15,-35.45,-41.6,-0.61,0.11,-0.97,0.1112
-0.15,-0.62,-0.94,2.14,-0.22,3.65,-7.03,-35.45,-41.89,-0.58,0.13,-0.99,0.1116
-0.14,-0.62,-0.93,2.25,0.21,3.17,-6.15,-35.74,-42.19,-0.58,0.13,-0.98,0.1119
-0.16,-0.63,-0.94,3.16,-0.59,3.07,-6.45,-36.33,-42.48,-0.59,0.14,-0.97,0.1123
-0.15,-0.63,-0.94,2.82,-0.64,-0.47,-6.15,-34.57,-41.89,-0.58,0.13,-0.95,0.1127
-0.16,-0.63,-0.93,2.44,-1.75,-2.41,-6.15,-35.74,-41.89,-0.59,0.14,-0.96,0.1131
-0.17,-0.63,-0.92,1.72,-1.88,-1.18,-6.15,-34.86,-41.6,-0.59,0.15,-0.94,0.1135
-0.17,-0.62,-0.94,2.02,-1.55,-2.83,-6.45,-35.45,-41.89,-0.58,0.15,-0.96,0.1139
-0.16,-0.62,-0.93,2.88,-1.48,-2.88,-6.15,-35.16,-41.6,-0.58,0.15,-0.95,0.1143
-0.17,-0.62,-0.93,3.24,-1.18,-2.57,-5.86,-35.45,-42.19,-0.58,0.15,-0.95,0.1147
-0.16,-0.63,-0.94,2.18,-0.47,-0.83,-5.86,-35.74,-41.6,-0.58,0.14,-0.96,0.115
-0.16,-0.62,-0.94,2.37,-0.45,0.75,-6.45,-35.74,-42.48,-0.58,0.14,-0.96,0.1154
-0.15,-0.63,-0.95,2.68,-0.12,0.37,-6.15,-35.16,-41.89,-0.58,0.13,-0.97,0.1158
-0.15,-0.63,-0.94,2.94,-0.05,1.91,-6.74,-34.86,-41.89,-0.59,0.13,-0.98,0.1162
-0.16,-0.61,-0.94,2.6,-0.2,-0.11,-6.15,-36.04,-42.48,-0.57,0.14,-0.97,0.1166
-0.17,-0.61,-0.94,2.55,-1.53,-2.75,-7.03,-35.45,-42.77,-0.57,0.15,-0.97,0.117
-0.16,-0.63,-0.94,2.53,-0.11,0.73,-6.45,-35.74,-42.19,-0.58,0.14,-0.97,0.1173
-0.15,-0.61,-0.93,2.62,-0.44,-0.02,-5.86,-35.74,-41.89,-0.58,0.14,-0.97,0.1177
-0.17,-0.62,-0.94,2.27,-0.67,-0.77,-7.32,-35.45,-42.48,-0.58,0.15,-0.97,0.1181
-0.16,-0.63,-0.93,2.4,0.02,-2.12,-6.74,-35.45,-42.19,-0.59,0.14,-0.97,0.1185
-0.16,-0.62,-0.93,1.63,-0.59,-1.52,-6.74,-35.16,-41.6,-0.58,0.14,-0.97,0.1189
-0.17,-0.61,-0.94,1.42,-1.08,-2.58,-6.45,-35.16,-41.89,-0.57,0.15,-0.96,0.1193
-0.16,-0.61,-0.94,2.17,-0.69,-0.96,-6.15,-35.16,-41.31,-0.57,0.14,-0.98,0.1197
-0.15,-0.62,-0.93,2.06,-0.72,1.14,-6.74,-35.16,-42.19,-0.58,0.13,-0.97,0.12
-0.17,-0.62,-0.93,2.95,-1.14,-2.72,-7.03,-35.16,-42.48,-0.58,0.15,-0.96,0.1204
-0.16,-0.62,-0.94,3.24,0.43,0.0,-6.74,-36.04,-42.19,-0.58,0.14,-0.98,0.1208
-0.15,-0.6,-0.94,2.18,-0.07,-2.08,-5.86,-36.04,-42.19,-0.56,0.13,-0.98,0.1212
-0.15,-0.63,-0.94,2.48,-0.6,-1.56,-6.74,-35.74,-41.6,-0.59,0.13,-0.99,0.1216
-0.16,-0.62,-0.94,3.37,-0.1,-0.09,-6.15,-35.16,-41.89,-0.58,0.14,-0.96,0.122
-0.16,-0.62,-0.94,2.93,-0.22,-0.31,-6.45,-35.74,-42.19,-0.57,0.14,-0.97,0.1224
-0.16,-0.61,-0.94,2.0,-0.72,-3.75,-6.15,-35.45,-41.6,-0.56,0.14,-0.98,0.1228
-0.15,-0.62,-0.94,3.11,0.69,1.75,-7.03,-35.16,-42.19,-0.57,0.14,-0.98,0.1231
-0.15,-0.61,-0.94,2.82,0.65,2.2,-6.45,-35.74,-42.19,-0.57,0.13,-0.99,0.1235
-0.16,-0.61,-0.96,3.09,-0.44,2.13,-7.03,-35.16,-42.19,-0.56,0.14,-0.99,0.1239
-0.16,-0.6,-0.94,2.3,0.88,-0.69,-6.74,-35.45,-41.6,-0.56,0.14,-1.0,0.1243
-0.16,-0.61,-0.94,2.31,-0.55,-1.56,-6.74,-35.45,-41.89,-0.57,0.14,-0.98,0.1248
-0.16,-0.6,-0.95,3.69,-0.05,-0.24,-7.03,-35.45,-41.6,-0.56,0.14,-1.01,0.1252
-0.12,-0.63,-0.94,2.93,0.8,3.03,-6.45,-34.28,-41.89,-0.58,0.11,-0.98,0.1256
-0.16,-0.6,-0.94,3.85,0.01,2.46,-6.15,-35.45,-41.6,-0.56,0.14,-0.99,0.1259
-0.16,-0.62,-0.93,3.07,-0.56,-4.81,-5.86,-35.16,-41.6,-0.58,0.14,-0.95,0.1263
-0.12,-0.6,-0.94,1.11,2.31,2.24,-6.45,-35.74,-41.6,-0.56,0.1,-1.03,0.1267
-0.16,-0.61,-0.97,4.4,-1.1,-3.12,-6.74,-35.74,-41.89,-0.56,0.14,-1.01,0.1271
-0.14,-0.63,-0.94,3.88,-0.31,0.51,-6.15,-35.16,-41.6,-0.59,0.13,-0.97,0.1275
-0.15,-0.6,-0.94,4.46,-0.69,2.04,-6.15,-35.74,-41.89,-0.56,0.13,-0.99,0.1279
-0.16,-0.62,-0.93,3.19,-0.69,-1.97,-6.15,-35.45,-42.19,-0.58,0.14,-0.96,0.1283
-0.15,-0.62,-0.95,3.2,-0.56,2.85,-6.15,-35.16,-41.6,-0.58,0.13,-0.98,0.1287
-0.15,-0.59,-0.94,2.24,-0.28,-0.31,-6.45,-35.16,-42.48,-0.56,0.13,-0.99,0.1291
-0.16,-0.62,-0.96,2.75,-2.08,-3.75,-6.74,-34.86,-42.19,-0.57,0.14,-0.98,0.1295
-0.16,-0.61,-0.94,1.98,-1.26,-3.73,-6.45,-35.74,-42.19,-0.57,0.14,-0.98,0.1299
-0.17,-0.61,-0.93,3.29,-0.75,-0.47,-7.03,-35.45,-41.89,-0.57,0.15,-0.98,0.1303
-0.15,-0.62,-0.96,3.2,0.27,-0.5,-6.74,-35.45,-41.89,-0.57,0.13,-0.99,0.1307
-0.15,-0.62,-0.95,3.41,0.66,1.13,-7.03,-35.45,-42.19,-0.57,0.13,-1.0,0.131
-0.15,-0.61,-0.94,1.4,0.66,-0.6,-6.15,-35.74,-41.89,-0.57,0.13,-0.98,0.1314
-0.15,-0.6,-0.94,1.39,-0.91,0.4,-6.15,-35.16,-42.48,-0.56,0.13,-0.98,0.1318
-0.15,-0.6,-0.95,2.91,-0.24,1.31,-6.45,-35.45,-42.77,-0.56,0.13,-0.98,0.1322
-0.15,-0.61,-0.94,2.98,-0.47,-0.3,-6.74,-35.16,-41.89,-0.57,0.13,-0.99,0.1326
-0.15,-0.61,-0.95,3.36,-0.2,-0.26,-6.45,-35.74,-41.89,-0.57,0.14,-0.99,0.133
-0.14,-0.62,-0.95,2.24,0.11,-0.63,-7.03,-35.16,-42.19,-0.57,0.13,-1.0,0.1334
-0.16,-0.6,-0.95,6.08,0.21,-4.03,-6.74,-35.45,-42.48,-0.56,0.14,-0.98,0.1338
-0.15,-0.61,-0.96,2.84,-0.84,-2.16,-7.03,-35.74,-42.19,-0.56,0.13,-1.01,0.1342
-0.14,-0.62,-0.94,3.36,0.08,4.97,-7.03,-36.33,-42.77,-0.58,0.13,-1.0,0.1346
-0.16,-0.6,-0.96,1.94,-2.14,-5.18,-6.15,-35.45,-41.89,-0.55,0.14,-0.99,0.135
-0.16,-0.63,-0.93,3.99,-4.01,-8.61,-6.45,-35.74,-42.19,-0.58,0.14,-0.96,0.1354
-0.15,-0.63,-0.93,1.84,-0.97,-1.04,-6.74,-35.45,-42.19,-0.59,0.13,-0.98,0.1358
-0.15,-0.61,-0.95,2.74,-0.64,0.31,-6.15,-35.45,-42.19,-0.56,0.13,-0.98,0.1362
-0.15,-0.61,-0.94,2.72,-0.49,0.05,-6.74,-35.45,-42.19,-0.57,0.13,-0.99,0.1365
-0.15,-0.62,-0.94,3.65,0.11,2.45,-7.32,-34.57,-42.48,-0.57,0.13,-0.98,0.137
-0.15,-0.61,-0.95,3.94,-0.75,-0.06,-6.74,-35.16,-41.89,-0.57,0.14,-0.99,0.1373
-0.15,-0.61,-0.95,3.18,-0.06,1.33,-6.74,-35.74,-42.48,-0.57,0.13,-0.99,0.1377
-0.15,-0.62,-0.94,3.04,-0.18,2.52,-6.74,-35.45,-42.19,-0.57,0.13,-0.99,0.1381
-0.15,-0.61,-0.94,2.43,-0.99,0.12,-6.45,-35.74,-42.19,-0.57,0.13,-0.99,0.1385
-0.15,-0.62,-0.95,1.91,-0.43,3.2,-7.03,-34.86,-42.19,-0.57,0.13,-0.99,0.1389
-0.19,-0.61,-1.08,4.17,-4.86,24.68,-7.32,-34.86,-42.19,-0.51,0.15,-1.04,0.1393
-0.21,-0.81,-1.19,21.22,-31.21,20.02,-6.15,-35.16,-41.6,-0.59,0.14,-0.95,0.1397
0.03,-0.73,-0.98,19.68,-1.34,102.93,-6.74,-35.16,-41.89,-0.64,-0.02,-1.09,0.1401
-0.17,-0.62,-0.95,22.54,-7.61,61.41,-7.62,-36.04,-41.31,-0.57,0.15,-1.01,0.1405
-0.23,-0.58,-0.92,-2.57,6.95,25.92,-7.03,-36.33,-40.72,-0.55,0.21,-0.96,0.1409
-0.45,-0.51,-0.86,26.26,-6.69,-0.93,-7.03,-36.91,-39.55,-0.48,0.42,-0.78,0.1413
-0.55,-0.47,-0.87,-8.75,-2.87,21.92,-6.74,-37.21,-38.38,-0.42,0.51,-0.74,0.1417
-0.44,-0.31,-0.87,-33.26,34.71,-41.87,-7.03,-38.09,-38.09,-0.31,0.45,-1.11,0.1421
-0.49,-0.55,-0.87,15.8,11.6,35.68,-6.74,-37.79,-37.5,-0.5,0.44,-0.78,0.1425
-0.51,-0.38,-0.91,13.39,-22.12,-14.15,-6.45,-37.79,-38.09,-0.35,0.47,-0.96,0.1429
-0.47,-0.36,-0.76,8.3,-6.63,-28.47,-5.57,-37.79,-37.5,-0.38,0.51,-0.82,0.1433
-0.39,-0.33,-0.68,-35.24,0.24,-115.5,-5.86,-38.96,-37.5,-0.4,0.47,-0.89,0.1437
-0.28,-0.74,-0.97,14.66,-9.58,-15.61,-5.57,-38.67,-37.79,-0.63,0.22,-0.92,0.1441
-0.38,-0.41,-0.65,2.37,-66.52,-90.03,-5.57,-38.09,-36.91,-0.5,0.46,-0.75,0.1445
-0.41,-0.55,-0.66,-3.18,-13.83,27.74,-5.57,-38.38,-37.21,-0.62,0.44,-0.65,0.1449
-0.47,-0.7,-0.96,20.67,-13.72,-121.93,-4.98,-38.38,-36.33,-0.58,0.38,-0.79,0.1453
-0.34,-0.37,-0.8,-13.42,60.33,47.46,-4.69,-38.67,-37.21,-0.4,0.37,-0.99,0.1457
-0.45,-0.6,-1.03,-17.7,18.23,-14.01,-5.57,-39.84,-37.5,-0.49,0.36,-0.92,0.1462
-0.35,-0.54,-0.9,10.48,-33.13,-64.32,-5.57,-39.84,-38.38,-0.51,0.32,-0.93,0.1466
-0.15,-0.62,-0.88,12.44,5.58,-17.34,-4.1,-38.96,-36.62,-0.61,0.14,-1.03,0.147
-0.33,-0.73,-0.85,29.04,-44.08,-47.27,-4.1,-39.55,-36.62,-0.68,0.29,-0.82,0.1474
-0.07,-0.74,-1.01,41.39,14.07,13.8,-3.22,-38.96,-36.33,-0.63,0.06,-1.07,0.1478
-0.18,-0.69,-0.92,49.95,17.65,57.18,-2.93,-38.96,-36.04,-0.63,0.15,-0.98,0.1482
-0.27,-0.69,-0.85,25.96,-17.62,17.59,-2.64,-38.67,-35.74,-0.66,0.24,-0.86,0.1486
-0.22,-0.63,-0.71,7.26,-1.61,10.33,-3.52,-38.96,-35.16,-0.71,0.22,-0.87,0.149
-0.26,-0.72,-0.75,6.65,-1.26,38.55,-2.34,-38.67,-35.45,-0.74,0.25,-0.8,0.1494
-0.26,-0.72,-0.79,29.73,-16.66,70.49,-2.34,-39.26,-34.86,-0.72,0.24,-0.85,0.1498
-0.05,-0.71,-0.74,15.62,-3.55,60.21,-2.05,-37.5,-33.98,-0.76,0.04,-1.0,0.1502
-0.31,-0.67,-0.63,10.55,-26.28,-1.95,-1.46,-37.79,-34.28,-0.76,0.33,-0.7,0.1506
-0.44,-0.74,-0.61,-1.77,-24.34,-40.44,-2.34,-38.09,-34.57,-0.77,0.43,-0.57,0.151
-0.44,-0.81,-0.63,8.99,-32.1,-44.53,-2.05,-37.79,-33.4,-0.81,0.41,-0.59,0.1514
-0.29,-0.74,-0.59,3.03,4.62,-60.79,-1.76,-38.09,-33.69,-0.85,0.29,-0.71,0.1518
-0.16,-0.64,-0.46,102.09,-28.19,-193.6,-0.88,-40.43,-33.98,-0.93,0.2,-0.79,0.1522
-0.14,-0.84,-0.45,72.62,-68.72,-185.78,0.0,-42.48,-31.64,-1.06,0.15,-0.85,0.1526
0.45,-0.81,-0.27,57.07,-27.08,152.71,0.88,-41.6,-29.88,-1.0,-0.48,-1.44,0.153
0.21,-0.73,-0.55,32.97,-102.0,30.0,2.05,-40.43,-29.0,-0.9,-0.23,-1.23,0.1534
0.06,-0.95,-0.36,-14.95,-5.73,-61.12,1.46,-39.84,-28.71,-1.21,-0.06,-1.03,0.1538
-0.06,-1.02,-0.21,5.99,-11.82,-47.58,2.05,-39.84,-29.59,-1.36,0.06,-0.88,0.1542
0.04,-0.88,-0.36,-49.2,-6.11,-32.66,2.64,-40.72,-29.59,-1.18,-0.05,-1.01,0.1546
-0.01,-0.86,-0.25,-0.95,-178.24,-70.25,2.93,-41.31,-29.59,-1.29,0.01,-0.94,0.155
0.24,-0.93,-0.41,-0.93,-26.2,-18.88,3.22,-41.31,-29.3,-1.1,-0.23,-1.19,0.1554
0.11,-0.94,-0.62,-5.26,-34.58,-11.19,2.93,-41.89,-29.59,-0.98,-0.1,-1.1,0.1558
0.22,-0.78,-0.46,-11.02,-31.88,-45.39,3.22,-40.72,-29.0,-0.99,-0.24,-1.21,0.1563
0.13,-0.97,-0.51,-23.96,28.21,10.26,2.64,-42.48,-29.59,-1.07,-0.12,-1.11,0.1566
0.23,-0.89,-0.74,-36.77,48.83,33.01,2.05,-41.6,-31.64,-0.85,-0.19,-1.19,0.157
0.27,-0.86,-0.57,-40.14,89.16,49.42,1.17,-41.6,-32.52,-0.94,-0.25,-1.22,0.1574
0.16,-0.93,-0.66,-29.63,111.0,66.57,1.46,-41.02,-32.52,-0.94,-0.14,-1.11,0.1579
0.21,-0.86,-0.75,1.43,55.43,42.02,1.76,-41.02,-33.11,-0.84,-0.18,-1.17,0.1583
0.17,-0.87,-0.65,0.16,56.81,18.47,1.46,-41.02,-33.4,-0.91,-0.16,-1.12,0.1586
0.24,-0.8,-0.79,6.82,18.79,2.82,0.59,-40.72,-33.4,-0.77,-0.21,-1.22,0.159
0.14,-0.86,-0.59,30.03,-39.08,-11.89,1.76,-41.02,-32.52,-0.96,-0.13,-1.1,0.1594
0.18,-0.85,-0.55,18.35,-47.81,-40.55,1.76,-41.89,-33.11,-0.97,-0.18,-1.14,0.1598
0.22,-0.86,-0.51,-8.44,-19.72,-12.7,2.05,-41.6,-32.81,-1.0,-0.22,-1.17,0.1602
0.16,-0.91,-0.59,11.36,-63.92,33.95,1.76,-41.89,-32.81,-0.98,-0.14,-1.11,0.1606
0.05,-1.01,-0.59,45.39,-59.75,-76.04,2.34,-41.89,-31.35,-1.04,-0.05,-1.02,0.161
0.18,-1.04,-0.62,120.33,-137.95,-205.12,3.81,-44.82,-28.12,-1.01,-0.14,-1.18,0.1614
0.38,-0.97,-0.21,136.66,-139.53,-170.35,2.64,-48.34,-25.78,-1.15,-0.37,-1.44,0.1618
0.79,-0.45,0.06,249.99,11.86,24.9,3.52,-50.68,-22.56,-0.51,-1.05,-1.85,0.1622
0.78,-0.58,-0.1,-12.67,-41.09,-33.33,2.93,-50.68,-23.14,-0.64,-0.92,-1.84,0.1626
0.8,-0.66,-0.16,-68.89,22.36,249.99,3.52,-49.22,-24.61,-0.68,-0.87,-1.78,0.163
0.51,-1.12,-0.44,17.36,-66.48,16.9,3.81,-47.46,-25.78,-1.03,-0.4,-1.45,0.1634
0.54,-0.8,-0.2,9.6,-63.39,9.86,4.1,-48.05,-25.78,-0.95,-0.58,-1.6,0.1638
0.55,-0.67,-0.38,44.22,-45.99,-112.6,4.1,-49.51,-24.32,-0.78,-0.62,-1.64,0.1642
0.73,-0.74,-0.21,-73.23,-4.28,-181.98,2.93,-51.27,-26.37,-0.77,-0.76,-1.74,0.1647
0.85,-0.58,-0.52,-82.08,-20.34,-195.4,0.59,-53.91,-26.66,-0.53,-0.83,-1.75,0.1651
0.99,-0.43,-0.53,-12.94,-8.54,-155.08,-2.05,-55.96,-27.83,-0.36,-0.97,-1.8,0.1655
1.04,-0.26,-0.69,30.99,126.33,-186.78,-4.69,-58.01,-25.78,-0.2,-0.95,-1.77,0.1659
1.01,0.08,-0.29,-1.18,24.69,-61.12,-5.27,-58.59,-25.2,0.08,-1.28,-1.61,0.1663
1.03,0.28,-0.25,-11.31,6.06,-79.67,-7.32,-58.59,-25.2,0.25,-1.22,-1.46,0.1667
1.14,0.22,-0.26,-6.97,10.21,-79.22,-8.5,-59.47,-25.49,0.18,-1.28,-1.55,0.1671
1.12,0.34,-0.33,-20.61,-52.23,-71.3,-10.55,-58.89,-26.37,0.28,-1.17,-1.53,0.1675
1.08,0.36,-0.51,-19.72,-136.44,-99.15,-12.3,-57.42,-29.3,0.29,-1.05,-1.6,0.1679
0.96,0.5,-0.66,31.72,-122.69,-124.52,-13.48,-55.96,-31.93,0.41,-0.85,-1.64,0.1683
0.78,0.63,-0.75,-18.3,-38.28,-121.85,-15.82,-53.61,-31.93,0.53,-0.68,-1.72,0.1687
0.73,0.76,-0.67,16.06,-29.36,-102.53,-16.99,-53.03,-32.23,0.65,-0.63,-1.74,0.1691
0.51,0.84,-0.73,-3.48,-65.5,-75.47,-18.46,-50.98,-32.52,0.75,-0.43,-1.88,0.1695
0.43,0.86,-0.84,17.56,-66.42,-32.44,-19.34,-50.1,-34.28,0.74,-0.34,-1.97,0.1699
0.35,0.86,-0.79,29.02,-27.61,9.45,-18.16,-48.34,-33.98,0.78,-0.29,-2.0,0.1703
0.33,0.81,-0.86,39.13,-39.31,22.52,-17.87,-48.05,-34.86,0.72,-0.27,-2.02,0.1707
0.32,0.76,-0.88,14.95,-14.59,16.34,-16.99,-48.63,-35.16,0.68,-0.27,-2.01,0.1711
0.35,0.74,-0.91,28.34,6.08,25.28,-16.41,-48.34,-35.45,0.65,-0.29,-1.99,0.1715
0.41,0.78,-0.99,-14.38,56.58,-4.03,-16.11,-49.8,-35.16,0.63,-0.31,-1.96,0.1719
0.5,0.79,-0.82,-90.39,146.28,-103.03,-19.63,-51.56,-31.35,0.69,-0.41,-1.9,0.1723
0.45,0.94,-0.64,-63.8,129.66,-93.12,-20.51,-50.98,-29.59,0.88,-0.38,-1.9,0.1727
0.27,1.04,-0.52,-70.53,2.43,-76.55,-22.27,-49.8,-28.12,1.06,-0.23,-2.0,0.1731
0.23,0.97,-0.51,-61.07,-12.64,-139.76,-24.02,-48.34,-26.95,1.05,-0.21,-2.03,0.1736
0.13,0.78,-0.55,66.22,60.97,67.08,-22.85,-48.34,-27.25,0.95,-0.13,-2.1,0.174
0.1,0.95,-0.47,-58.14,65.77,-20.39,-23.14,-48.34,-25.49,1.1,-0.1,-2.09,0.1744
0.24,1.02,-0.17,-38.93,-35.9,31.74,-23.44,-50.39,-24.9,1.29,-0.23,-1.9,0.1748
0.36,1.07,-0.25,-62.97,-81.56,76.21,-22.56,-50.98,-24.61,1.18,-0.32,-1.84,0.1752
0.33,1.19,-0.13,95.33,-250.0,126.08,-21.39,-51.56,-29.0,1.28,-0.27,-1.9,0.1756
0.36,0.94,-0.58,36.24,69.08,91.48,-19.63,-52.73,-29.0,0.94,-0.32,-1.91,0.176
0.4,0.78,-0.5,25.43,-82.92,-12.83,-19.63,-51.56,-30.76,0.88,-0.41,-1.87,0.1764
0.46,0.85,-0.65,2.26,-93.81,-118.57,-21.39,-50.1,-30.47,0.82,-0.41,-1.91,0.1768
0.18,1.04,-0.75,-6.65,-45.14,-90.69,-21.09,-47.46,-31.05,0.93,-0.14,-2.13,0.1772
0.11,0.85,-0.54,-63.27,65.82,-90.23,-21.68,-47.46,-30.47,1.0,-0.11,-2.15,0.1776
0.05,1.03,-0.49,47.58,-4.36,-29.37,-21.97,-46.58,-31.05,1.13,-0.05,-2.21,0.178
-0.1,1.2,-0.61,80.7,6.94,82.7,-19.92,-47.17,-33.11,1.1,0.07,-2.32,0.1784
0.15,0.93,-0.62,33.27,83.03,21.77,-20.21,-48.34,-31.93,0.97,-0.14,-2.12,0.1788
0.2,0.92,-0.67,-17.68,77.54,-25.72,-20.51,-49.8,-31.05,0.92,-0.18,-2.07,0.1792
-0.02,0.71,-0.87,-14.14,79.09,-1.28,-21.39,-50.68,-29.59,0.68,0.02,-2.19,0.1796
0.35,0.87,-0.51,-82.28,32.29,-33.52,-21.68,-50.68,-29.3,0.95,-0.34,-1.93,0.18
0.3,1.04,-0.72,-100.33,-29.94,-70.03,-23.14,-48.93,-27.25,0.92,-0.24,-2.02,0.1804
0.17,1.04,-0.54,-111.5,-6.58,-43.68,-23.44,-49.51,-26.07,1.07,-0.14,-2.05,0.1808
0.03,0.94,-0.34,-54.31,-8.06,-19.11,-23.73,-49.22,-25.78,1.22,-0.03,-2.13,0.1812
0.02,1.03,-0.32,-24.75,-94.06,-13.27,-23.73,-48.05,-24.32,1.27,-0.02,-2.12,0.1817
0.04,1.0,-0.27,15.46,-9.1,10.57,-24.32,-49.22,-24.61,1.3,-0.04,-2.09,0.182
0.17,1.05,-0.14,21.75,-101.39,26.93,-23.44,-49.51,-25.49,1.37,-0.16,-1.96,0.1824
0.13,1.08,-0.37,31.88,-36.32,26.49,-24.02,-50.1,-26.95,1.22,-0.12,-2.06,0.1828
0.15,0.99,-0.21,10.55,51.5,30.89,-24.02,-50.1,-26.07,1.32,-0.15,-1.99,0.1832
0.2,1.06,-0.28,0.34,100.46,50.35,-23.44,-51.27,-25.49,1.26,-0.18,-1.96,0.1836
0.25,1.04,-0.26,-16.78,-35.23,-1.37,-23.44,-51.56,-25.49,1.24,-0.23,-1.92,0.184
0.33,1.17,-0.28,-7.72,-32.8,-9.86,-24.02,-50.98,-25.49,1.22,-0.27,-1.89,0.1844
0.19,1.04,-0.17,-3.91,20.81,-15.09,-22.85,-49.8,-24.61,1.33,-0.18,-1.93,0.1848
0.14,1.02,-0.28,-22.32,21.68,1.33,-23.14,-50.39,-24.32,1.27,-0.14,-1.98,0.1852
0.33,1.24,-0.54,-119.55,41.44,9.08,-23.14,-51.27,-21.97,1.1,-0.24,-1.9,0.1856
0.26,0.86,0.19,-82.72,-62.73,3.21,-23.14,-50.98,-20.8,1.21,-0.29,-1.81,0.186
0.06,0.85,0.31,74.33,112.69,31.2,-22.85,-50.1,-21.39,1.22,-0.07,-2.02,0.1864
0.07,0.97,0.13,1.53,34.6,-19.78,-22.85,-50.1,-20.21,1.42,-0.07,-1.94,0.1868
0.19,1.04,0.03,16.98,-5.77,14.37,-23.14,-50.39,-21.39,1.39,-0.18,-1.86,0.1871
0.05,0.88,-0.06,39.9,-97.29,30.89,-22.56,-50.1,-21.97,1.49,-0.05,-1.96,0.1875
0.25,1.04,-0.15,103.9,-135.17,19.67,-23.14,-50.98,-24.32,1.3,-0.24,-1.88,0.1879
0.36,1.12,-0.32,117.95,-50.62,45.97,-21.68,-51.56,-27.25,1.16,-0.3,-1.89,0.1884
0.3,1.02,-0.44,49.36,-39.59,-2.33,-21.97,-51.86,-28.42,1.09,-0.26,-1.95,0.1888
0.38,1.13,-0.57,-14.23,-2.67,-39.96,-21.97,-50.1,-29.0,1.02,-0.29,-1.96,0.1892
0.27,1.07,-0.36,-3.39,3.1,-55.88,-22.85,-50.1,-27.83,1.17,-0.24,-1.96,0.1895
0.23,1.0,-0.46,-56.69,-42.75,-3.43,-23.14,-49.8,-27.83,1.09,-0.21,-2.01,0.1899
0.3,1.12,-0.37,-42.6,39.86,-15.82,-23.44,-49.51,-26.37,1.17,-0.25,-1.95,0.1903
0.2,1.0,-0.25,-3.18,60.94,20.18,-23.73,-50.68,-25.78,1.27,-0.19,-1.96,0.1907
0.16,0.95,-0.37,8.67,14.54,44.85,-23.73,-51.86,-26.07,1.17,-0.16,-2.0,0.1911
0.26,0.96,-0.23,93.54,136.76,103.2,-22.85,-53.03,-24.9,1.23,-0.25,-1.87,0.1915
0.35,1.38,-0.34,-42.35,22.65,102.48,-21.39,-54.49,-26.95,1.23,-0.24,-1.89,0.1919
0.16,1.02,-0.44,-36.1,-87.13,-33.68,-21.09,-53.32,-26.37,1.14,-0.14,-2.0,0.1923
0.5,0.88,-0.38,-6.48,-25.83,14.35,-21.68,-53.61,-26.66,0.95,-0.48,-1.77,0.1927
0.54,1.04,-0.35,-21.07,-23.75,-11.54,-21.39,-54.2,-26.95,1.01,-0.46,-1.76,0.1931
0.36,1.04,-0.34,-27.79,-74.68,-143.39,-22.27,-52.44,-27.25,1.12,-0.32,-1.87,0.1935
0.24,0.89,-0.33,-11.9,-28.0,-131.44,-24.61,-50.68,-27.54,1.14,-0.25,-1.96,0.1939
0.13,0.91,-0.3,-10.8,-6.07,-91.29,-24.61,-48.05,-26.95,1.22,-0.13,-2.06,0.1944
0.13,1.07,-0.28,-12.15,36.71,-30.82,-24.9,-47.75,-26.37,1.29,-0.12,-2.06,0.1948
-0.37,1.03,-0.36,-21.51,43.35,94.89,-24.32,-49.22,-24.9,1.11,0.33,-2.45,0.1953
0.03,1.01,-0.29,11.15,47.67,249.99,-21.09,-54.49,-24.61,1.29,-0.03,-2.04,0.1956
0.16,0.87,-0.22,16.2,-34.48,82.14,-19.34,-56.25,-24.9,1.27,-0.18,-1.89,0.1961
0.39,0.86,-0.25,0.52,-33.13,12.52,-19.04,-57.13,-26.07,1.07,-0.41,-1.73,0.1964
0.55,0.92,-0.28,-35.39,-75.46,-165.09,-21.39,-54.49,-25.78,0.98,-0.52,-1.7,0.1969
0.7,1.04,-0.25,-10.41,0.18,-146.55,-22.56,-51.27,-25.2,0.95,-0.58,-1.7,0.1973
0.5,1.52,-0.39,-43.73,38.54,-41.21,-23.73,-50.68,-24.32,1.17,-0.31,-1.86,0.1977
-0.14,1.7,-0.21,-12.18,3.72,-17.72,-23.73,-49.51,-24.9,1.42,0.08,-2.16,0.1981
0.27,0.99,-0.34,90.27,87.26,20.24,-23.73,-50.1,-25.49,1.15,-0.26,-1.93,0.1985
0.17,1.17,-0.34,12.76,30.65,12.07,-23.14,-50.1,-25.78,1.26,-0.14,-2.01,0.1989
0.21,1.06,-0.32,-2.69,-18.78,13.28,-24.61,-50.98,-26.07,1.23,-0.18,-1.98,0.1993
0.24,1.0,-0.28,11.65,0.89,13.2,-24.02,-50.39,-26.66,1.22,-0.23,-1.95,0.1997
0.19,1.12,-0.3,-1.82,-9.77,0.89,-24.02,-50.68,-26.37,1.26,-0.17,-1.99,0.2
0.16,1.11,-0.13,0.85,1.69,3.94,-24.02,-50.98,-26.37,1.39,-0.14,-1.97,0.2004
0.25,1.05,-0.29,4.84,-7.26,12.39,-24.02,-51.56,-26.07,1.22,-0.23,-1.93,0.2008
0.28,1.08,-0.28,2.79,-8.61,35.75,-23.14,-51.86,-26.95,1.22,-0.25,-1.92,0.2012
0.14,1.08,-0.32,-5.82,18.57,44.55,-24.02,-52.15,-25.2,1.26,-0.12,-2.0,0.2016
0.91,1.11,-0.18,-69.4,242.03,126.05,-21.97,-54.49,-22.56,0.87,-0.68,-1.59,0.2027
0.75,1.24,-0.68,-63.67,249.99,201.31,-19.04,-55.66,-18.16,0.89,-0.49,-1.65,0.2038
0.52,0.85,0.17,-68.24,249.99,110.3,-16.99,-53.32,-13.48,1.0,-0.54,-1.49,0.2042
0.19,0.43,0.33,42.5,160.91,55.02,-16.99,-52.44,-12.3,0.85,-0.34,-1.7,0.2046
0.2,0.85,0.32,21.38,102.17,28.52,-17.58,-50.98,-12.3,1.15,-0.21,-1.73,0.205
0.26,0.85,0.55,12.26,102.11,-11.02,-17.87,-49.22,-11.72,0.95,-0.25,-1.76,0.2054
0.02,0.75,0.43,27.67,36.61,-8.3,-18.75,-48.05,-12.01,1.05,-0.02,-1.94,0.2058
0.11,0.95,0.34,20.24,30.65,-2.21,-18.16,-47.46,-12.6,1.21,-0.1,-1.84,0.2062
0.16,0.95,0.39,2.43,12.4,-6.11,-19.04,-46.58,-12.01,1.16,-0.15,-1.82,0.2066
0.1,0.84,0.32,6.17,-34.45,4.09,-18.46,-47.75,-12.01,1.19,-0.11,-1.83,0.207
0.16,0.87,0.3,-5.38,-37.12,7.37,-18.46,-47.75,-12.01,1.19,-0.17,-1.78,0.2074
0.03,0.86,0.4,13.06,-187.74,-21.0,-19.34,-50.39,-13.48,1.14,-0.03,-1.93,0.2078
0.72,0.78,0.24,60.51,-34.86,-43.87,-19.04,-50.98,-13.77,0.8,-0.72,-1.5,0.2082
0.24,0.89,0.09,5.94,93.23,2.14,-19.63,-50.39,-13.18,1.29,-0.26,-1.67,0.2086
0.17,0.89,0.16,-19.0,41.36,6.83,-19.63,-49.22,-12.89,1.31,-0.19,-1.73,0.209
0.29,0.96,0.32,-20.03,31.07,-4.78,-18.46,-48.63,-12.3,1.15,-0.28,-1.7,0.2094
0.16,0.83,0.37,0.41,-1.05,-5.17,-18.75,-48.34,-11.13,1.12,-0.17,-1.78,0.2098
0.17,0.83,0.35,2.1,-1.23,-3.51,-19.04,-48.93,-12.3,1.13,-0.19,-1.78,0.2102
0.21,0.85,0.36,1.89,7.39,3.26,-18.16,-48.63,-11.72,1.12,-0.22,-1.74,0.2106
0.22,0.91,0.34,-0.23,4.44,1.3,-18.75,-48.93,-11.72,1.15,-0.23,-1.73,0.2109
0.22,0.91,0.37,-2.93,-4.75,16.94,-17.87,-49.22,-11.43,1.13,-0.22,-1.73,0.2113
0.33,0.77,0.3,8.4,0.95,0.73,-18.46,-48.63,-12.6,1.04,-0.38,-1.65,0.2117
0.28,0.87,0.35,7.25,-0.7,-6.81,-18.75,-49.22,-12.6,1.09,-0.29,-1.71,0.2121
0.2,0.87,0.33,2.91,-3.7,-5.87,-18.75,-49.22,-12.3,1.15,-0.21,-1.75,0.2125
0.26,0.88,0.38,7.53,6.65,-9.35,-17.87,-48.63,-12.3,1.09,-0.26,-1.72,0.2129
0.26,0.96,0.41,-11.97,-0.18,-17.53,-18.16,-48.63,-12.89,1.1,-0.25,-1.74,0.2133
0.13,0.79,0.3,3.48,-20.56,-15.58,-18.75,-48.63,-12.3,1.18,-0.15,-1.8,0.2137
0.24,0.83,0.35,1.24,11.41,2.94,-18.46,-48.63,-11.72,1.09,-0.26,-1.72,0.214
0.21,0.88,0.32,2.75,-2.75,2.0,-18.46,-48.63,-12.6,1.16,-0.23,-1.74,0.2144
0.19,0.88,0.34,6.87,-9.86,-0.69,-18.16,-49.22,-12.3,1.15,-0.2,-1.76,0.2148
0.21,0.86,0.34,4.0,-16.33,-1.22,-18.46,-48.93,-11.72,1.14,-0.22,-1.74,0.2152
-0.01,0.95,0.27,0.3,-186.88,-61.77,-18.46,-50.39,-13.18,1.29,0.01,-1.92,0.2156
0.2,0.9,0.09,80.91,-250.0,-141.85,-21.39,-53.61,-17.29,1.33,-0.22,-1.75,0.216
0.47,0.91,-0.09,128.22,-250.0,-205.06,-23.44,-51.56,-22.56,1.09,-0.47,-1.71,0.2165
0.29,1.06,-0.28,63.71,-97.49,-47.96,-23.73,-49.8,-24.9,1.21,-0.26,-1.91,0.2169
0.3,1.17,-0.33,17.78,-49.42,-12.3,-23.73,-49.51,-25.78,1.21,-0.24,-1.94,0.2173
0.1,0.98,-0.38,11.82,-46.23,-11.88,-24.61,-49.51,-27.25,1.19,-0.09,-2.1,0.2177
0.11,1.09,-0.39,-4.59,-70.37,-14.34,-24.32,-49.51,-26.95,1.22,-0.09,-2.09,0.2181
0.12,1.0,-0.32,3.88,-54.08,-4.93,-24.61,-49.22,-27.54,1.24,-0.12,-2.07,0.2185
0.14,1.09,-0.3,-3.65,-34.64,-14.0,-24.61,-48.63,-27.83,1.27,-0.12,-2.07,0.2189
0.15,1.05,-0.3,-14.65,-8.72,-22.87,-24.61,-48.34,-26.66,1.26,-0.14,-2.04,0.2193
0.12,1.03,-0.29,-17.53,20.23,12.31,-24.9,-48.63,-26.66,1.27,-0.11,-2.06,0.2197
0.13,1.36,-0.26,-70.43,9.3,-42.75,-24.9,-48.05,-25.49,1.36,-0.09,-2.04,0.2201
0.01,0.98,-0.14,-49.67,31.14,48.92,-24.02,-48.93,-24.02,1.42,-0.01,-2.07,0.2205
0.04,0.88,-0.12,-8.16,10.35,29.44,-24.9,-49.8,-24.32,1.43,-0.05,-2.03,0.2209
0.14,1.07,-0.1,-1.17,8.31,3.86,-24.9,-50.1,-23.73,1.41,-0.13,-1.94,0.2213
0.12,1.01,-0.09,-5.5,25.41,23.44,-23.44,-50.1,-23.73,1.42,-0.12,-1.95,0.2217
0.06,0.87,-0.03,17.01,-24.33,-36.92,-24.61,-50.1,-23.44,1.49,-0.07,-1.97,0.2221
0.19,1.0,-0.08,7.34,-18.38,-19.91,-24.61,-49.22,-24.02,1.37,-0.18,-1.92,0.2225
0.19,1.12,-0.09,2.98,-24.6,-16.8,-25.2,-48.34,-23.73,1.39,-0.17,-1.94,0.2229
0.11,1.06,-0.1,10.69,-13.94,-6.03,-24.02,-48.93,-24.9,1.43,-0.1,-1.99,0.2233
0.18,0.97,-0.09,21.09,-2.46,6.77,-24.02,-48.93,-24.32,1.36,-0.18,-1.93,0.2237
0.06,1.02,-0.13,5.04,-0.73,-2.05,-24.02,-49.8,-24.61,1.43,-0.06,-2.02,0.224
0.15,1.04,-0.13,2.82,11.66,14.89,-24.02,-50.1,-24.61,1.39,-0.14,-1.96,0.2244
0.18,1.05,-0.12,8.83,21.97,0.5,-24.61,-49.51,-24.61,1.36,-0.17,-1.94,0.2248
0.1,1.01,-0.14,-16.74,-38.95,-92.38,-24.32,-49.22,-24.32,1.4,-0.09,-2.0,0.2252
0.11,1.05,-0.1,-29.76,-46.04,-31.82,-24.02,-47.75,-24.32,1.43,-0.1,-1.99,0.2256
-0.02,1.07,-0.08,-22.48,-5.67,-66.51,-24.9,-46.29,-23.14,1.49,0.02,-2.08,0.226
-0.13,0.98,0.53,-0.55,-26.35,33.35,-24.32,-47.17,-23.14,1.06,0.12,-2.27,0.2264
0.09,1.16,-0.24,70.66,14.14,95.76,-24.32,-48.34,-25.49,1.35,-0.08,-2.06,0.2268
0.06,0.99,-0.21,29.39,-77.82,16.88,-24.32,-49.22,-26.07,1.36,-0.06,-2.07,0.2272
0.13,1.07,-0.25,16.89,-33.1,3.89,-23.73,-48.05,-26.07,1.31,-0.12,-2.04,0.2276
0.15,1.0,-0.18,29.7,-20.58,18.51,-23.44,-48.05,-26.66,1.34,-0.14,-2.01,0.228
0.21,1.05,-0.28,27.56,-3.74,1.95,-24.61,-48.34,-28.71,1.25,-0.19,-2.03,0.2284
0.14,1.05,-0.34,21.02,2.75,-2.84,-23.44,-48.63,-28.12,1.23,-0.13,-2.07,0.2288
0.12,1.06,-0.35,12.55,2.14,9.64,-23.73,-48.93,-28.42,1.24,-0.11,-2.09,0.2292
0.23,1.06,-0.28,15.29,-15.08,6.03,-23.44,-49.22,-28.12,1.24,-0.21,-1.99,0.2296
0.19,1.07,-0.42,1.99,-11.5,1.17,-23.44,-49.51,-28.71,1.16,-0.16,-2.05,0.23
0.15,1.03,-0.38,3.01,13.89,7.48,-23.44,-48.63,-28.12,1.19,-0.14,-2.07,0.2304
0.17,1.01,-0.34,4.03,3.68,9.51,-23.44,-49.51,-28.42,1.21,-0.16,-2.04,0.2308
0.17,1.01,-0.42,3.3,-2.26,16.87,-23.14,-49.51,-29.0,1.15,-0.16,-2.06,0.2311
0.24,1.05,-0.37,4.94,-1.84,2.81,-23.44,-49.8,-29.0,1.17,-0.21,-2.01,0.2315
0.29,1.06,-0.37,2.5,-0.52,-0.39,-22.85,-49.8,-28.42,1.15,-0.25,-1.97,0.2319
0.19,0.94,-0.39,26.05,1.72,12.18,-22.27,-49.51,-29.88,1.14,-0.18,-2.05,0.2323
0.35,1.09,-0.34,16.97,14.81,-5.39,-23.14,-49.8,-29.59,1.15,-0.3,-1.94,0.2327
0.27,1.08,-0.45,-2.57,5.96,-0.09,-23.14,-50.1,-29.3,1.12,-0.23,-2.0,0.2331
0.18,0.99,-0.44,6.29,-9.38,7.53,-22.85,-49.22,-28.42,1.12,-0.17,-2.05,0.2335
0.24,0.98,-0.43,26.46,-2.06,12.89,-22.85,-50.39,-29.59,1.11,-0.22,-2.01,0.2339
0.32,1.04,-0.44,18.23,-4.49,1.69,-22.56,-50.1,-30.18,1.09,-0.28,-1.97,0.2343
0.28,1.01,-0.44,12.72,-0.87,2.59,-22.27,-49.8,-29.88,1.09,-0.25,-2.0,0.2347
0.31,1.03,-0.5,7.38,-3.33,0.51,-22.27,-50.1,-30.76,1.05,-0.26,-2.0,0.2351
0.32,1.05,-0.51,0.02,-2.11,-1.45,-22.27,-50.1,-30.47,1.05,-0.27,-1.99,0.2355
0.26,0.96,-0.46,11.57,-0.68,5.33,-21.97,-50.68,-29.88,1.07,-0.24,-2.0,0.2359
0.3,1.0,-0.49,1.23,-2.62,1.95,-21.68,-49.8,-30.47,1.05,-0.26,-1.99,0.2363
0.33,1.03,-0.49,-0.27,1.86,-1.63,-21.97,-49.8,-29.59,1.05,-0.28,-1.97,0.2367
0.27,0.99,-0.48,5.97,5.36,2.35,-21.97,-50.39,-29.59,1.06,-0.24,-1.99,0.2371
0.28,1.0,-0.56,2.67,4.85,8.03,-21.97,-50.39,-29.88,1.02,-0.24,-2.01,0.2375
0.36,1.05,-0.46,-6.03,2.37,-1.97,-21.97,-50.39,-30.18,1.06,-0.3,-1.95,0.2378
0.31,0.98,-0.44,0.6,1.45,2.85,-21.68,-50.1,-29.59,1.07,-0.28,-1.96,0.2382
0.3,0.95,-0.49,22.08,13.57,0.66,-21.97,-50.68,-30.47,1.03,-0.27,-1.98,0.2386
0.35,0.99,-0.44,17.12,0.33,0.65,-21.68,-50.39,-30.76,1.06,-0.31,-1.95,0.239
0.41,1.02,-0.51,14.93,5.81,-7.32,-21.97,-50.68,-30.47,1.0,-0.34,-1.93,0.2394
0.33,0.98,-0.55,14.16,0.31,0.05,-21.09,-50.39,-30.18,0.99,-0.28,-1.97,0.2398
0.32,1.0,-0.56,12.07,2.27,-1.13,-20.51,-50.39,-30.76,1.0,-0.27,-1.98,0.2401
0.28,0.99,-0.59,-8.27,-7.49,-3.12,-21.39,-49.8,-30.76,0.99,-0.24,-2.02,0.2405
0.33,1.02,-0.51,-7.51,-2.73,-10.46,-22.27,-50.98,-31.05,1.04,-0.28,-1.98,0.2409
0.3,0.97,-0.5,-3.97,-6.57,3.36,-22.56,-50.68,-29.88,1.03,-0.27,-1.98,0.2413
0.32,0.99,-0.49,1.79,-8.23,-1.92,-21.68,-49.8,-31.05,1.04,-0.28,-1.98,0.2417
0.32,0.99,-0.53,-1.32,-16.62,-12.85,-21.68,-49.8,-30.76,1.02,-0.28,-1.99,0.2421
0.21,0.99,-0.59,3.23,-3.59,-16.23,-22.27,-48.93,-30.76,1.01,-0.18,-2.08,0.2425
0.29,1.02,-0.5,-18.44,-17.49,-9.16,-21.97,-49.22,-29.88,1.05,-0.25,-2.0,0.2429
0.19,0.95,-0.45,6.61,0.46,-1.63,-21.68,-48.93,-31.35,1.1,-0.18,-2.07,0.2433
0.29,1.01,-0.4,16.95,11.94,-5.34,-21.68,-48.93,-30.47,1.12,-0.26,-1.99,0.2437
0.27,1.03,-0.53,4.52,7.03,-1.13,-21.97,-48.34,-31.35,1.05,-0.23,-2.05,0.2441
0.2,1.03,-0.54,27.31,-2.01,-6.53,-22.27,-48.93,-30.76,1.07,-0.17,-2.08,0.2445
0.22,0.99,-0.56,5.14,-3.3,2.83,-21.97,-48.63,-31.93,1.03,-0.19,-2.09,0.2448
0.29,1.02,-0.54,8.04,4.95,-5.04,-21.68,-48.93,-31.93,1.03,-0.24,-2.03,0.2452
0.26,1.02,-0.54,1.93,-0.57,-10.89,-22.27,-48.63,-31.05,1.04,-0.22,-2.05,0.2456
0.19,0.96,-0.5,-3.38,-1.36,-0.21,-22.56,-48.63,-31.93,1.07,-0.17,-2.1,0.246
0.21,1.03,-0.58,9.27,-15.4,2.6,-21.97,-48.63,-31.93,1.03,-0.18,-2.09,0.2464
0.21,0.99,-0.57,1.4,2.13,-0.54,-21.68,-48.34,-31.64,1.02,-0.18,-2.09,0.2468
0.23,0.99,-0.54,-1.93,-12.38,4.71,-22.56,-48.93,-31.05,1.03,-0.2,-2.06,0.2472
0.3,1.1,-0.54,-15.34,32.2,-20.23,-21.97,-49.51,-30.76,1.06,-0.24,-2.02,0.2476
0.24,1.02,-0.53,-46.77,106.58,-19.17,-23.14,-49.8,-30.18,1.05,-0.21,-2.04,0.248
0.25,0.99,-0.39,-49.07,115.91,5.97,-23.14,-49.8,-27.83,1.13,-0.23,-1.98,0.2484
0.3,1.05,-0.43,-49.89,96.86,-6.55,-23.44,-51.56,-25.49,1.11,-0.25,-1.93,0.2488
0.31,0.99,-0.12,-53.68,126.57,28.72,-23.14,-51.86,-24.32,1.24,-0.31,-1.82,0.2492
0.32,1.01,-0.14,-38.15,108.06,29.66,-22.27,-53.03,-21.68,1.24,-0.3,-1.78,0.2497
0.44,0.99,-0.09,38.89,140.49,116.07,-21.09,-55.08,-21.39,1.15,-0.42,-1.68,0.2501
0.68,0.97,-0.24,8.98,31.28,-43.32,-20.51,-54.49,-19.92,0.93,-0.6,-1.59,0.2505
0.59,0.91,-0.04,35.3,62.23,-33.81,-21.09,-54.49,-19.92,0.99,-0.58,-1.58,0.2509
0.57,1.01,0.02,-61.62,-46.27,-144.71,-21.68,-53.91,-19.63,1.06,-0.51,-1.61,0.2513
0.33,0.95,0.05,-6.78,79.44,-10.84,-21.39,-53.03,-17.58,1.23,-0.34,-1.68,0.2517
0.26,0.95,0.17,-2.15,37.38,23.09,-21.39,-51.86,-17.29,1.25,-0.27,-1.74,0.252
0.37,0.92,0.03,32.21,119.43,62.36,-20.51,-52.15,-17.87,1.18,-0.39,-1.66,0.2524
0.31,1.07,0.08,5.36,43.29,-4.69,-21.09,-50.98,-17.58,1.28,-0.28,-1.73,0.2528
0.3,0.96,0.01,7.01,10.92,9.53,-20.8,-52.15,-17.58,1.27,-0.3,-1.7,0.2532
0.32,0.98,0.03,13.57,20.91,-15.34,-21.09,-51.27,-17.29,1.25,-0.32,-1.7,0.2536
0.42,1.04,0.1,4.93,13.96,13.59,-21.39,-51.27,-17.58,1.17,-0.39,-1.67,0.2539
0.31,1.0,0.06,0.8,7.73,24.19,-21.68,-51.86,-17.58,1.26,-0.3,-1.71,0.2543
0.39,0.99,0.09,4.7,7.1,11.21,-21.39,-51.86,-17.29,1.18,-0.38,-1.67,0.2547
0.37,0.99,0.09,-1.88,11.22,10.09,-21.68,-51.56,-16.7,1.21,-0.35,-1.68,0.2551
0.35,0.96,0.09,-6.49,1.22,5.88,-20.8,-52.44,-17.29,1.21,-0.35,-1.68,0.2555
0.34,0.98,0.06,5.61,-1.13,1.99,-21.39,-50.98,-16.99,1.24,-0.33,-1.69,0.2558
0.38,0.97,0.09,-3.59,-3.21,13.87,-20.8,-53.03,-17.29,1.19,-0.37,-1.66,0.2562
0.39,0.98,0.11,2.25,-2.3,4.33,-20.21,-51.27,-16.7,1.18,-0.38,-1.66,0.2566
0.38,0.97,0.08,0.06,-8.07,5.06,-20.51,-52.44,-17.58,1.19,-0.37,-1.66,0.257
0.4,0.95,0.11,6.95,2.23,-1.87,-20.51,-51.86,-16.7,1.16,-0.4,-1.64,0.2574
0.4,0.98,0.11,8.8,-4.3,-6.16,-20.8,-52.15,-17.58,1.17,-0.39,-1.66,0.2577
0.39,0.98,0.09,8.48,4.01,-5.5,-20.51,-51.27,-16.99,1.19,-0.38,-1.66,0.2581
0.31,0.99,0.07,4.08,-61.02,-10.69,-21.09,-52.15,-16.7,1.26,-0.3,-1.7,0.2585
0.25,1.0,0.02,0.46,-250.0,27.77,-21.09,-54.79,-19.63,1.32,-0.25,-1.75,0.2589
0.87,0.89,-0.83,-183.62,-250.0,-62.67,-20.8,-53.61,-24.61,0.64,-0.62,-1.74,0.2593
0.17,0.94,-0.16,23.87,-133.45,17.95,-22.27,-52.73,-26.37,1.33,-0.17,-1.94,0.2597
0.48,0.94,-0.25,39.07,-132.78,-23.03,-22.27,-51.86,-28.71,1.04,-0.46,-1.79,0.2601
0.46,1.05,-0.56,0.37,-180.3,-46.71,-22.85,-49.22,-30.18,0.97,-0.37,-1.93,0.2605
0.35,0.94,-0.38,47.94,-16.76,-15.03,-22.27,-48.63,-30.76,1.07,-0.34,-1.95,0.2611
0.18,1.08,-0.74,-11.65,6.55,-20.45,-22.27,-48.05,-31.35,0.96,-0.13,-2.14,0.2616
0.28,0.99,-0.51,-24.23,15.6,-91.64,-23.44,-47.46,-31.64,1.04,-0.25,-2.05,0.262
0.18,0.99,-0.45,12.17,18.98,-59.81,-23.14,-46.88,-31.05,1.12,-0.16,-2.11,0.2624
0.28,1.03,-0.5,-24.6,-54.23,-23.32,-22.85,-46.58,-31.64,1.06,-0.24,-2.07,0.2628
0.14,1.01,-0.56,10.71,-18.07,5.21,-22.56,-46.0,-31.93,1.05,-0.12,-2.17,0.2632
0.09,1.0,-0.61,-2.63,-12.91,12.58,-22.56,-46.58,-31.35,1.02,-0.07,-2.2,0.2636
0.26,1.02,-0.53,7.87,14.14,4.85,-22.56,-47.17,-32.23,1.05,-0.22,-2.08,0.264
0.15,0.97,-0.62,-20.91,-13.51,-0.24,-23.14,-46.88,-31.93,0.98,-0.13,-2.16,0.2644
0.18,1.02,-0.42,-26.25,-18.5,3.89,-23.73,-47.17,-31.35,1.15,-0.16,-2.11,0.2648
0.23,1.04,-0.47,32.49,9.26,-7.09,-22.85,-46.58,-31.64,1.11,-0.2,-2.09,0.2653
0.15,0.98,-0.5,17.24,38.22,-4.66,-23.14,-46.88,-31.93,1.09,-0.14,-2.15,0.2657
0.13,0.96,-0.56,37.57,131.87,-32.58,-22.56,-47.46,-31.05,1.03,-0.11,-2.15,0.2661
0.14,1.02,-0.63,15.16,103.01,-56.91,-23.44,-48.34,-31.93,1.01,-0.12,-2.16,0.2665
0.05,0.97,-0.52,13.79,-22.54,3.52,-23.14,-47.75,-30.18,1.08,-0.05,-2.2,0.2669
0.11,1.01,-0.58,11.7,-18.71,2.02,-22.85,-47.46,-31.35,1.04,-0.1,-2.17,0.2673
0.11,1.0,-0.6,15.36,-40.86,8.85,-23.14,-47.17,-31.93,1.02,-0.1,-2.19,0.2677
0.15,1.0,-0.56,-17.12,-47.09,-15.08,-22.85,-46.58,-31.05,1.04,-0.13,-2.15,0.2681
0.07,1.03,-0.66,-19.29,-35.27,3.25,-22.85,-45.7,-31.64,1.0,-0.06,-2.23,0.2685
-0.01,0.9,-0.57,-5.07,1.63,13.07,-23.14,-46.0,-30.76,1.01,0.01,-2.28,0.2689
0.06,0.99,-0.57,-8.59,-33.34,5.44,-23.44,-46.0,-30.76,1.05,-0.05,-2.22,0.2693
0.1,1.02,-0.53,4.94,-6.94,-1.24,-23.73,-46.58,-31.35,1.08,-0.08,-2.2,0.2697
0.01,0.96,-0.56,-6.61,-23.32,7.77,-23.14,-46.29,-31.05,1.04,-0.01,-2.26,0.2701
0.02,0.99,-0.56,8.15,5.45,2.4,-22.85,-45.7,-31.35,1.06,-0.02,-2.25,0.2705
0.05,1.02,-0.53,16.02,8.74,-8.12,-23.44,-46.58,-31.64,1.09,-0.04,-2.23,0.2708
0.05,1.01,-0.58,-5.65,-19.69,2.75,-22.85,-45.41,-31.35,1.04,-0.04,-2.24,0.2712
0.05,1.0,-0.55,1.34,-11.47,-0.73,-23.44,-46.58,-31.64,1.07,-0.04,-2.23,0.2716
0.08,1.01,-0.55,8.51,3.07,0.34,-22.85,-44.82,-30.76,1.07,-0.07,-2.22,0.272
0.07,1.01,-0.55,-7.04,-12.96,-2.17,-22.85,-45.41,-32.23,1.07,-0.06,-2.23,0.2724
0.05,0.99,-0.5,-6.22,-16.56,-0.92,-23.44,-45.41,-31.35,1.1,-0.04,-2.24,0.2728
0.04,1.01,-0.55,-2.93,15.21,-1.72,-23.14,-46.29,-31.35,1.07,-0.03,-2.24,0.2732
0.09,0.98,-0.55,-22.44,21.12,-9.34,-23.73,-46.29,-31.35,1.06,-0.08,-2.21,0.2736
0.06,1.01,-0.51,-9.1,3.41,-7.37,-24.32,-46.29,-30.47,1.1,-0.05,-2.22,0.2739
0.05,1.01,-0.49,1.66,-4.34,1.63,-23.44,-45.7,-30.18,1.11,-0.05,-2.22,0.2743
0.03,1.03,-0.51,-3.72,-5.74,-0.8,-24.02,-46.58,-30.18,1.11,-0.03,-2.23,0.2747
0.12,1.07,-0.45,14.97,6.14,-5.29,-23.44,-46.0,-30.18,1.16,-0.1,-2.16,0.2755
0.04,0.99,-0.45,2.96,3.5,-5.09,-24.02,-46.29,-31.35,1.14,-0.03,-2.24,0.2759
-0.0,1.0,-0.53,-3.83,-10.54,-5.55,-24.02,-46.29,-31.05,1.08,0.0,-2.27,0.2763
0.01,0.98,-0.48,6.3,-6.23,1.66,-24.32,-45.7,-29.88,1.12,-0.01,-2.25,0.2766
0.02,1.01,-0.47,26.66,12.97,2.33,-22.85,-45.41,-30.47,1.14,-0.02,-2.24,0.277
0.07,1.04,-0.5,-8.1,-19.87,-1.46,-24.61,-45.7,-30.76,1.12,-0.06,-2.22,0.2775
0.04,1.02,-0.46,0.92,2.53,3.01,-24.61,-46.29,-31.05,1.14,-0.04,-2.23,0.2779
-0.02,1.0,-0.53,6.81,4.04,6.8,-23.44,-45.7,-31.35,1.08,0.01,-2.28,0.2782
0.09,1.05,-0.51,9.01,5.39,-1.99,-24.02,-45.12,-31.05,1.11,-0.08,-2.21,0.2786
0.05,1.0,-0.5,6.03,16.24,-0.55,-23.44,-45.7,-30.76,1.11,-0.05,-2.22,0.279
0.06,0.99,-0.51,1.66,1.27,-1.41,-24.32,-46.58,-30.76,1.09,-0.05,-2.22,0.2794
0.07,1.01,-0.49,-3.34,6.26,-1.01,-23.14,-46.29,-31.35,1.11,-0.06,-2.21,0.2798
0.06,0.97,-0.45,8.87,0.65,-2.85,-23.14,-46.29,-31.05,1.14,-0.05,-2.21,0.2801
0.11,1.06,-0.49,15.37,12.97,-8.42,-23.73,-46.88,-31.64,1.13,-0.09,-2.18,0.2805
0.01,1.0,-0.56,9.47,2.6,-1.04,-23.73,-46.0,-30.47,1.06,-0.01,-2.25,0.2809
0.01,1.01,-0.58,-0.09,-6.65,3.9,-23.73,-46.29,-31.05,1.05,-0.01,-2.26,0.2813
0.07,1.04,-0.51,-1.12,1.51,2.14,-23.73,-46.58,-30.76,1.12,-0.06,-2.2,0.2817
0.05,1.0,-0.54,-9.29,10.04,7.17,-23.44,-46.29,-31.05,1.07,-0.04,-2.23,0.2821
0.1,1.05,-0.54,-23.81,21.74,9.3,-23.44,-46.29,-29.3,1.09,-0.08,-2.17,0.2825
0.03,1.02,-0.51,-24.06,35.96,8.99,-24.32,-47.46,-29.3,1.11,-0.03,-2.21,0.2829
0.11,1.0,-0.4,-2.16,24.77,5.99,-24.02,-47.75,-29.0,1.17,-0.1,-2.13,0.2833
0.16,1.05,-0.42,3.95,30.31,4.37,-24.02,-47.75,-29.3,1.17,-0.14,-2.1,0.2836
0.11,1.0,-0.49,-16.65,40.28,13.27,-23.14,-48.63,-28.42,1.1,-0.1,-2.12,0.284
0.12,0.96,-0.33,-14.78,37.03,52.76,-23.73,-49.8,-29.0,1.22,-0.12,-2.08,0.2844
0.24,1.06,-0.3,-3.33,22.42,2.65,-23.44,-49.8,-27.83,1.22,-0.22,-1.98,0.2848
0.18,1.03,-0.34,4.78,63.29,35.58,-23.73,-50.1,-27.83,1.21,-0.17,-2.02,0.2852
0.17,0.93,-0.39,1.75,-18.89,-16.7,-24.02,-50.39,-28.12,1.15,-0.17,-2.04,0.2856
0.21,1.03,-0.38,42.37,-16.39,-36.98,-24.02,-49.8,-28.71,1.17,-0.19,-2.03,0.286
0.15,1.0,-0.37,16.22,-39.31,-26.99,-23.44,-48.63,-27.25,1.19,-0.14,-2.06,0.2864
0.09,1.0,-0.44,13.79,6.48,4.55,-23.44,-48.63,-27.54,1.14,-0.09,-2.12,0.2868
0.16,1.07,-0.42,4.09,21.93,8.54,-23.73,-49.8,-28.12,1.18,-0.14,-2.06,0.2872
0.22,1.04,-0.42,18.6,30.73,4.91,-22.85,-49.22,-28.42,1.14,-0.19,-2.03,0.2876
0.26,1.06,-0.29,-6.6,-50.29,-10.49,-23.44,-48.34,-27.83,1.22,-0.23,-1.98,0.288
0.17,0.99,-0.4,8.84,-5.97,6.75,-23.73,-49.22,-28.42,1.16,-0.16,-2.06,0.2884
0.17,0.97,-0.37,64.14,12.54,188.52,-22.27,-49.8,-29.3,1.17,-0.17,-2.05,0.2888
0.47,1.1,-0.49,7.52,-25.3,26.66,-23.14,-49.8,-29.59,1.02,-0.37,-1.91,0.2892
0.37,1.11,-0.5,-19.27,9.16,21.55,-22.27,-50.98,-29.88,1.06,-0.3,-1.95,0.2896
0.33,0.95,-0.44,-7.52,59.62,50.67,-22.56,-52.15,-29.0,1.05,-0.3,-1.93,0.29
0.38,1.06,-0.38,5.88,93.48,81.18,-21.09,-53.91,-27.83,1.1,-0.33,-1.86,0.2904
0.43,1.01,-0.36,-21.82,12.73,17.42,-21.39,-53.91,-26.95,1.06,-0.38,-1.81,0.2908
0.58,0.95,-0.35,-9.33,17.27,7.02,-21.39,-55.66,-26.37,0.95,-0.52,-1.71,0.2912
0.55,0.9,-0.35,-1.44,10.53,-5.7,-21.09,-54.49,-26.95,0.95,-0.51,-1.73,0.2916
0.54,0.95,-0.29,8.96,15.43,-27.27,-21.09,-53.91,-26.37,1.0,-0.5,-1.72,0.292
0.04,1.07,-0.36,15.43,-46.33,-106.04,-21.68,-52.44,-26.66,1.24,-0.04,-2.09,0.2924
0.28,0.81,-0.38,34.59,-65.21,-0.86,-22.27,-52.15,-28.42,1.05,-0.3,-1.92,0.2928
0.5,1.0,-0.39,-21.13,-41.8,-6.26,-22.85,-52.15,-27.83,1.01,-0.43,-1.82,0.2932
0.56,1.28,-0.35,-89.49,0.94,-22.11,-22.85,-52.15,-26.95,1.09,-0.4,-1.81,0.2936
0.56,0.79,-0.38,-7.74,18.85,89.32,-21.68,-53.03,-25.78,0.86,-0.57,-1.72,0.294
0.59,0.88,-0.21,37.38,32.78,104.29,-21.39,-54.79,-26.37,0.95,-0.58,-1.67,0.2944
0.4,0.89,-0.17,35.76,-72.17,38.45,-19.92,-55.66,-26.66,1.12,-0.41,-1.74,0.2948
0.69,0.9,-0.36,-19.49,7.88,61.09,-18.46,-56.54,-26.95,0.86,-0.62,-1.64,0.2952
0.71,0.75,-0.12,-60.25,-21.14,-12.79,-19.34,-56.25,-26.66,0.81,-0.75,-1.57,0.2956
0.79,0.84,-0.31,-21.42,-8.13,5.0,-17.87,-55.96,-26.95,0.78,-0.72,-1.59,0.296
0.56,0.83,-0.23,-4.18,-37.62,-82.76,-20.21,-55.66,-27.54,0.95,-0.57,-1.67,0.2964
0.65,0.81,-0.4,-30.25,-49.55,-96.95,-21.39,-53.32,-28.12,0.82,-0.62,-1.72,0.2968
0.43,0.85,-0.25,35.43,-19.94,-101.15,-22.27,-52.73,-28.12,1.04,-0.45,-1.79,0.2973
0.54,1.08,-0.35,-13.88,-20.42,-78.09,-23.44,-50.1,-27.54,1.03,-0.45,-1.82,0.2977
0.54,1.21,-0.44,6.2,-25.29,-59.36,-23.44,-49.22,-28.12,1.05,-0.4,-1.88,0.2981
0.27,1.18,-0.28,-1.15,-32.89,-5.47,-23.14,-49.22,-29.0,1.25,-0.22,-1.98,0.2985
0.36,1.01,-0.38,2.04,-24.51,31.17,-23.44,-49.51,-29.0,1.09,-0.32,-1.93,0.2989
0.45,1.12,-0.27,-29.18,-91.41,-68.44,-24.02,-48.05,-29.0,1.13,-0.38,-1.9,0.2993
0.19,1.03,-0.27,4.6,-22.0,0.55,-23.73,-47.46,-29.3,1.26,-0.18,-2.05,0.2997
0.2,1.03,-0.27,-45.46,73.73,39.34,-23.14,-48.05,-29.0,1.25,-0.18,-2.03,0.3001
0.15,1.18,-1.32,10.19,-51.29,9.7,-24.32,-48.93,-28.42,0.73,-0.08,-2.16,0.3005
0.42,0.77,0.2,25.05,2.46,-4.57,-24.02,-48.63,-27.83,1.03,-0.48,-1.82,0.3009
0.28,0.98,-0.21,26.98,-19.13,28.86,-23.73,-49.22,-28.12,1.23,-0.28,-1.93,0.3013
0.28,0.99,-0.09,0.99,83.51,18.03,-23.44,-49.8,-27.83,1.28,-0.28,-1.9,0.3017
0.24,0.97,-0.24,35.13,56.67,21.52,-22.85,-49.8,-28.71,1.24,-0.23,-1.97,0.3021
0.05,0.74,-0.28,19.84,9.17,41.51,-22.85,-50.98,-29.3,1.21,-0.06,-2.13,0.3025
0.43,1.06,-0.28,52.47,-13.34,72.78,-21.97,-51.56,-30.47,1.12,-0.37,-1.87,0.3029
0.3,0.74,-0.16,-0.83,-8.65,-16.57,-22.56,-51.86,-31.35,1.15,-0.37,-1.87,0.3033
0.48,1.01,-0.38,-3.81,-6.23,40.86,-21.39,-51.86,-30.47,1.02,-0.42,-1.85,0.3037
0.56,0.94,-0.43,-5.19,3.45,19.05,-20.21,-52.73,-30.18,0.93,-0.5,-1.78,0.3041
0.58,0.93,-0.38,5.78,9.6,-9.25,-21.09,-52.73,-31.05,0.93,-0.53,-1.78,0.3044
0.49,0.89,-0.38,18.17,2.31,-9.34,-21.68,-52.73,-30.47,0.96,-0.47,-1.82,0.3048
0.53,0.9,-0.45,17.83,0.15,-18.3,-20.8,-52.44,-30.76,0.91,-0.49,-1.81,0.3052
0.51,1.03,-0.43,1.75,-4.97,8.43,-20.8,-52.15,-31.05,1.0,-0.43,-1.84,0.3056
0.61,0.97,-0.44,-0.09,0.5,15.85,-20.51,-52.44,-30.47,0.91,-0.52,-1.78,0.3061
0.56,0.9,-0.41,-10.89,1.43,14.44,-20.21,-52.73,-31.05,0.91,-0.52,-1.78,0.3065
0.52,0.93,-0.4,-0.3,2.38,-9.19,-20.21,-52.73,-30.18,0.96,-0.47,-1.8,0.3069
0.6,0.86,-0.39,26.82,13.91,-2.05,-21.09,-52.73,-30.76,0.88,-0.57,-1.76,0.3072
0.53,0.98,-0.41,11.88,-2.62,5.61,-20.21,-52.15,-30.47,0.97,-0.47,-1.81,0.3076
0.63,0.92,-0.45,10.3,6.04,-15.26,-20.8,-53.03,-31.05,0.87,-0.55,-1.77,0.308
0.51,0.98,-0.44,-3.44,-2.51,-2.72,-20.21,-53.03,-30.76,0.96,-0.45,-1.82,0.3084
0.86,0.96,-0.77,15.56,11.28,-10.16,-21.39,-53.91,-30.76,0.69,-0.61,-1.77,0.3088
0.57,1.03,-0.46,21.19,34.88,-42.27,-21.09,-50.98,-29.88,0.96,-0.46,-1.83,0.3092
0.5,0.92,-0.4,-0.07,-2.29,5.12,-21.39,-52.44,-30.47,0.96,-0.46,-1.82,0.3096
0.44,1.0,-0.44,-15.06,-5.74,-7.61,-21.09,-52.44,-30.76,1.02,-0.38,-1.87,0.31
0.42,0.95,-0.35,-4.5,32.12,-121.8,-22.27,-50.98,-30.47,1.05,-0.39,-1.88,0.3104
0.5,1.04,-0.51,1.89,0.34,-45.59,-23.14,-51.27,-29.59,0.97,-0.41,-1.88,0.3108
0.35,1.19,-0.41,-20.0,11.68,-15.67,-23.14,-49.51,-29.0,1.14,-0.27,-1.96,0.3112
0.24,1.02,-0.37,-34.43,-0.69,3.0,-22.85,-50.1,-29.0,1.16,-0.22,-2.0,0.3116
0.22,1.13,-0.29,0.21,13.46,13.03,-24.02,-50.39,-28.71,1.26,-0.19,-2.0,0.312
0.38,0.91,-0.32,-3.38,-2.86,31.78,-23.14,-50.98,-29.0,1.07,-0.37,-1.88,0.3124
0.28,1.14,-0.25,-47.54,10.19,1.87,-22.85,-51.27,-28.71,1.25,-0.24,-1.95,0.3128
0.28,0.98,-0.31,-32.1,-11.28,19.13,-23.14,-50.98,-27.25,1.17,-0.27,-1.92,0.3132
0.36,1.0,-0.27,-15.1,-0.62,3.82,-23.14,-50.98,-27.25,1.15,-0.34,-1.87,0.3136
0.37,1.05,-0.23,-4.33,-9.41,25.28,-23.44,-51.56,-27.83,1.17,-0.34,-1.87,0.314
0.53,1.05,-0.16,-24.68,27.53,42.98,-22.56,-52.15,-26.95,1.09,-0.46,-1.76,0.3144
0.44,0.96,-0.14,12.47,-13.54,36.06,-23.14,-52.44,-27.25,1.12,-0.43,-1.78,0.3148
0.44,0.93,-0.21,6.37,-33.56,22.87,-21.68,-52.44,-27.83,1.09,-0.43,-1.79,0.3152
0.49,0.99,-0.21,17.65,-19.26,-6.0,-22.27,-53.32,-28.42,1.07,-0.46,-1.77,0.3156
0.51,0.96,-0.24,6.56,-30.29,46.88,-22.27,-53.32,-28.71,1.04,-0.47,-1.77,0.316
0.8,1.38,-0.43,10.12,-28.95,60.91,-19.92,-54.2,-28.12,0.99,-0.51,-1.73,0.3164
0.77,0.82,-0.3,48.01,-26.15,45.56,-17.58,-54.79,-29.0,0.78,-0.72,-1.61,0.3168
0.77,0.84,-0.39,14.02,-11.61,13.98,-17.87,-55.66,-30.18,0.77,-0.69,-1.64,0.3172
0.86,0.9,-0.41,-8.13,12.15,10.03,-18.46,-55.96,-30.47,0.76,-0.71,-1.63,0.3175
0.8,0.73,-0.37,2.94,9.96,-25.41,-18.16,-55.08,-31.05,0.69,-0.78,-1.63,0.3179
0.71,0.79,-0.37,-15.7,5.3,-31.4,-18.75,-55.37,-29.88,0.78,-0.68,-1.65,0.3183
0.71,0.84,-0.34,-1.28,-6.87,-39.82,-18.75,-54.2,-30.47,0.82,-0.66,-1.67,0.3187
0.66,0.91,-0.34,-4.01,2.42,-34.71,-19.63,-54.2,-29.59,0.89,-0.6,-1.7,0.3191
0.63,0.93,-0.33,5.46,-31.25,-30.26,-19.92,-54.2,-30.18,0.92,-0.57,-1.72,0.3195
0.61,0.84,-0.39,4.49,-20.5,3.81,-20.51,-53.91,-31.64,0.86,-0.58,-1.74,0.3199
0.74,0.88,-0.42,28.82,-14.64,56.69,-19.63,-54.2,-31.64,0.8,-0.65,-1.7,0.3203
0.81,0.97,-0.43,-19.84,59.49,48.26,-18.75,-55.08,-30.76,0.81,-0.66,-1.67,0.3207
0.81,0.73,-0.45,-7.07,24.6,-0.92,-19.04,-55.08,-29.59,0.67,-0.76,-1.65,0.3211
0.71,0.8,-0.39,-7.67,-15.49,-10.2,-19.04,-54.79,-29.88,0.78,-0.67,-1.67,0.3215
0.77,0.94,-0.38,-35.17,-20.1,-37.05,-20.21,-54.79,-30.47,0.83,-0.65,-1.68,0.3219
0.78,1.0,-0.24,-23.23,15.03,-13.73,-19.92,-54.2,-29.3,0.88,-0.65,-1.66,0.3223
0.68,0.81,-0.48,-14.95,16.55,-85.76,-21.97,-53.03,-28.42,0.77,-0.63,-1.74,0.3227
0.55,0.96,-0.28,-5.37,20.94,-96.79,-22.85,-51.86,-28.42,1.0,-0.51,-1.77,0.3231
0.41,0.98,-0.26,6.27,9.96,-47.31,-23.44,-51.86,-28.71,1.11,-0.38,-1.85,0.3235
0.46,1.03,-0.23,-8.4,23.28,-75.12,-23.73,-50.1,-28.12,1.1,-0.41,-1.84,0.3239
0.4,1.0,-0.21,-8.76,29.5,-44.95,-24.02,-48.93,-26.95,1.15,-0.37,-1.86,0.3243
0.2,1.0,-0.19,8.58,7.35,-30.13,-23.73,-48.34,-27.54,1.3,-0.19,-1.99,0.3247
0.21,1.07,-0.2,-5.3,-6.9,4.78,-24.02,-48.34,-26.95,1.31,-0.19,-1.98,0.3251
0.24,1.02,-0.19,-8.91,-8.61,23.93,-24.02,-48.93,-26.66,1.28,-0.23,-1.95,0.3255
0.3,0.96,-0.19,5.2,-9.18,18.3,-23.73,-49.8,-28.12,1.22,-0.3,-1.91,0.3259
-0.26,0.65,-0.18,0.64,16.96,30.67,-23.44,-48.63,-26.66,1.12,0.37,-2.5,0.3263
0.47,1.13,-0.21,13.57,22.77,63.03,-23.73,-49.51,-28.12,1.14,-0.39,-1.85,0.3267
0.14,0.99,-0.28,1.94,-161.37,-86.98,-23.14,-50.68,-27.83,1.27,-0.13,-2.03,0.3271
0.1,0.78,-0.02,16.53,-12.0,22.78,-22.56,-50.68,-27.83,1.44,-0.13,-1.99,0.3275
0.04,0.86,-0.32,56.02,35.03,59.43,-22.85,-50.98,-27.83,1.22,-0.04,-2.12,0.3279
0.51,1.13,-0.11,-22.43,-73.0,-34.93,-22.85,-50.98,-28.71,1.14,-0.42,-1.81,0.3283
0.53,1.33,-0.26,-12.46,-68.38,-166.56,-24.02,-48.93,-27.54,1.16,-0.37,-1.87,0.3287
0.17,1.03,-0.11,-23.44,164.3,-123.57,-24.02,-47.75,-28.42,1.38,-0.16,-2.02,0.3291
-0.02,1.0,-0.33,17.88,-17.18,-45.75,-24.61,-46.29,-27.54,1.25,0.01,-2.22,0.3295
0.14,1.17,-0.13,16.94,-39.38,-47.45,-24.9,-44.82,-27.54,1.41,-0.12,-2.07,0.3299
-0.03,0.98,-0.2,10.81,-47.92,-8.57,-25.2,-45.12,-29.59,1.37,0.03,-2.24,0.3303
-0.01,1.07,-0.26,56.14,18.43,-58.91,-24.61,-43.65,-29.59,1.33,0.01,-2.25,0.3307
0.74,1.18,-0.5,59.93,47.81,29.38,-24.02,-46.88,-31.35,0.92,-0.53,-1.87,0.3311
0.3,1.08,-0.4,-14.05,-7.71,29.95,-24.02,-47.75,-31.05,1.14,-0.25,-2.03,0.3315
0.38,0.99,-0.43,-4.2,8.66,-2.67,-23.44,-48.93,-30.76,1.05,-0.34,-1.96,0.3319
0.33,1.05,-0.36,-4.99,-10.85,21.07,-22.85,-47.75,-30.47,1.14,-0.29,-1.99,0.3323
0.14,0.95,-0.26,9.66,7.03,-46.62,-23.44,-47.46,-30.76,1.26,-0.14,-2.09,0.3327
0.14,1.07,-0.32,-2.98,-48.64,44.5,-23.73,-48.34,-30.47,1.25,-0.13,-2.1,0.3331
0.3,1.1,-0.38,-23.88,-23.05,27.82,-24.02,-47.75,-30.47,1.15,-0.26,-2.01,0.3335
0.2,1.15,-0.25,-28.08,-26.95,-10.99,-24.61,-47.75,-29.3,1.3,-0.17,-2.05,0.3339
0.23,0.96,-0.22,-7.62,-14.85,-6.76,-24.02,-47.17,-29.88,1.25,-0.23,-2.01,0.3343
0.2,1.02,-0.23,6.09,-10.56,-22.61,-24.32,-46.58,-29.59,1.28,-0.19,-2.04,0.3347
0.23,1.14,-0.19,1.7,-10.76,7.13,-25.2,-47.17,-29.59,1.31,-0.2,-2.03,0.3351
0.21,1.03,-0.32,7.46,-3.93,10.52,-24.02,-47.75,-29.59,1.22,-0.19,-2.05,0.3355
0.14,1.08,-0.22,5.51,-22.09,13.67,-24.02,-47.17,-29.88,1.33,-0.13,-2.08,0.3359
0.23,1.05,-0.27,7.1,-3.36,4.2,-23.73,-46.58,-29.88,1.24,-0.21,-2.04,0.3362
0.21,1.06,-0.28,-1.53,-4.48,-16.75,-24.61,-46.29,-29.3,1.25,-0.19,-2.05,0.3366
0.19,1.07,-0.25,-6.13,-7.74,-13.53,-24.61,-47.17,-29.59,1.28,-0.17,-2.06,0.337
0.18,1.03,-0.26,9.95,-4.32,9.36,-24.32,-47.17,-29.88,1.27,-0.16,-2.07,0.3374
0.2,1.07,-0.26,1.08,-3.7,-10.31,-24.32,-46.58,-29.59,1.27,-0.18,-2.05,0.3378
0.2,1.04,-0.29,5.0,1.12,-4.25,-24.02,-46.58,-29.88,1.24,-0.19,-2.06,0.3382
0.21,1.05,-0.28,11.34,1.96,-3.85,-24.61,-46.88,-29.88,1.25,-0.19,-2.05,0.3386
0.19,1.06,-0.3,7.06,-5.71,14.76,-24.32,-46.88,-30.76,1.25,-0.17,-2.08,0.3389
0.26,1.07,-0.31,3.04,11.58,-3.22,-24.32,-46.29,-29.88,1.21,-0.23,-2.04,0.3393
0.18,1.05,-0.28,-1.42,0.43,-9.3,-24.9,-46.88,-29.88,1.26,-0.17,-2.07,0.3582
0.13,1.09,-0.26,-5.76,-4.73,-17.52,-24.32,-46.58,-30.47,1.31,-0.11,-2.12,0.4319
0.21,1.04,-0.28,-4.25,-1.54,-14.35,-24.32,-45.7,-29.3,1.24,-0.19,-2.06,0.5057
0.12,1.05,-0.26,-3.29,0.13,-20.4,-24.61,-44.82,-29.3,1.31,-0.11,-2.12,0.5795
0.11,1.03,-0.25,-1.94,-0.14,-22.25,-24.9,-45.12,-29.59,1.31,-0.1,-2.14,0.6532
0.08,1.01,-0.27,1.15,-7.42,-25.71,-25.2,-43.65,-29.88,1.3,-0.08,-2.18,0.7273
0.01,0.95,-0.22,10.73,-0.72,-70.56,-24.61,-43.36,-29.59,1.34,-0.01,-2.23,0.8006
-0.05,1.08,-0.26,-8.46,7.5,-88.69,-24.32,-41.31,-29.88,1.33,0.04,-2.31,0.8743
-0.16,1.01,-0.24,-18.11,0.66,-118.31,-24.02,-39.26,-29.0,1.3,0.15,-2.43,0.9481
-0.34,0.93,-0.18,-30.79,-6.68,-95.86,-24.02,-37.5,-28.42,1.18,0.34,-2.62,1.0218
-0.38,0.93,-0.19,-23.19,-0.28,-66.95,-24.02,-36.33,-28.71,1.14,0.38,-2.68,1.0956
-0.49,0.87,-0.17,-19.4,0.41,-57.79,-23.73,-35.45,-27.54,1.03,0.5,-2.79,1.1693
-0.52,0.85,-0.14,-21.99,-1.43,-63.4,-23.14,-34.28,-27.54,1.0,0.55,-2.84,1.2431
-0.61,0.62,-0.12,18.58,15.69,-65.31,-21.39,-32.52,-27.25,0.79,0.77,-3.04,1.3168
-0.72,0.65,-0.09,-22.53,-43.4,-104.93,-21.09,-32.52,-26.95,0.73,0.83,-3.09,1.3944
-0.75,0.47,-0.03,-14.31,2.88,-73.2,-19.34,-30.76,-26.66,0.56,1.01,2.98,1.4644
-0.71,0.43,-0.07,2.0,13.32,-76.49,-19.34,-30.47,-26.95,0.54,1.02,2.95,1.538
-0.85,0.43,-0.1,-15.41,7.71,-69.72,-17.87,-29.88,-27.54,0.47,1.09,2.84,1.6117
-0.78,0.26,-0.12,3.67,31.53,-59.17,-16.41,-28.42,-27.83,0.31,1.22,2.59,1.6854
-0.97,0.23,-0.07,11.55,26.19,-83.58,-14.65,-28.71,-28.71,0.23,1.33,2.38,1.7592
-0.9,0.24,-0.12,-2.95,38.71,-103.71,-13.18,-28.42,-28.71,0.26,1.28,2.41,1.8368
-0.9,-0.02,-0.21,24.35,5.08,-124.24,-10.55,-27.83,-29.0,-0.02,1.34,1.99,1.9105
-0.85,-0.14,-0.21,9.06,-45.92,-123.98,-8.2,-27.54,-28.71,-0.16,1.28,1.7,1.9842
-0.82,-0.24,-0.1,-3.95,-47.84,-100.27,-6.45,-28.12,-28.12,-0.29,1.26,1.36,2.058
-0.76,-0.37,-0.1,3.4,-42.03,-81.78,-4.98,-28.71,-27.25,-0.45,1.11,0.77,2.1318
-0.65,-0.54,-0.09,23.14,-37.77,-87.52,-3.22,-29.59,-25.78,-0.69,0.87,0.03,2.2054
-0.71,-0.58,0.06,14.7,-16.06,-91.45,-2.34,-29.88,-25.78,-0.68,0.89,0.05,2.2791
-0.53,-0.68,-0.02,38.12,53.99,98.65,-2.64,-28.71,-24.9,-0.91,0.66,-0.26,2.3529
-0.56,-0.52,-0.01,-22.76,88.91,249.99,-7.62,-27.83,-27.25,-0.75,0.82,0.04,2.4266
-1.01,-0.17,-0.15,-15.91,84.03,249.99,-14.94,-28.71,-28.42,-0.17,1.35,1.97,2.5003
-1.09,0.39,-0.22,-35.67,-4.07,249.99,-22.27,-32.81,-28.12,0.34,1.18,2.77,2.574
-0.63,0.69,-0.21,-54.14,18.64,175.71,-23.44,-36.62,-27.25,0.81,0.71,-2.94,2.6478
-0.42,0.69,-0.28,78.64,22.25,249.99,-25.49,-40.43,-27.25,0.94,0.52,-2.74,2.7216
-0.22,1.05,-0.19,-13.85,-85.14,63.1,-25.2,-43.07,-28.12,1.3,0.21,-2.42,2.7954
0.9,1.11,-0.4,-21.7,-55.15,-250.0,-24.61,-44.24,-28.12,0.84,-0.65,-1.81,2.8691
0.8,1.32,-0.32,-53.99,54.45,153.36,-24.61,-49.22,-27.54,0.99,-0.54,-1.79,2.9429
0.42,1.07,-0.18,26.28,36.84,224.83,-21.97,-53.03,-26.07,1.17,-0.37,-1.8,3.0165
0.61,0.87,-0.13,54.24,64.71,153.49,-20.21,-56.25,-26.07,0.95,-0.61,-1.62,3.0903
0.76,0.92,-0.2,6.98,0.16,134.03,-17.87,-58.01,-26.37,0.86,-0.68,-1.56,3.1639
0.9,0.76,-0.25,-10.98,55.7,143.08,-16.11,-59.18,-24.61,0.69,-0.84,-1.48,3.2378
0.9,0.57,-0.11,-4.78,44.11,108.23,-13.18,-58.59,-24.32,0.56,-0.99,-1.42,3.3114
0.87,0.37,-0.05,15.19,-17.54,73.1,-12.01,-59.18,-24.9,0.4,-1.17,-1.44,3.3852
1.13,0.38,-0.32,9.09,61.07,-29.4,-11.72,-58.89,-23.73,0.31,-1.16,-1.52,3.459
1.09,0.32,-0.0,12.2,70.16,-28.96,-11.43,-58.89,-21.97,0.28,-1.29,-1.49,3.5327
1.02,0.16,0.0,-40.5,-69.57,81.9,-8.2,-58.01,-23.44,0.16,-1.41,-1.56,3.6064
1.11,0.27,-0.02,-4.86,18.31,102.13,-7.62,-58.01,-23.44,0.24,-1.33,-1.45,3.6804
1.22,0.22,-0.08,-34.71,53.25,197.69,-4.98,-58.59,-22.85,0.18,-1.38,-1.44,3.7538
1.03,-0.23,0.11,-10.86,2.69,121.7,-2.64,-56.84,-23.44,-0.22,-1.33,-1.92,3.8277
0.91,-0.22,0.07,-9.99,-12.6,41.15,-1.46,-56.25,-23.44,-0.24,-1.32,-1.91,3.9013
0.94,-0.36,0.06,-2.82,-28.62,-67.49,-2.05,-56.25,-24.02,-0.36,-1.2,-1.96,3.975
1.03,-0.28,0.02,-31.42,-92.91,-199.71,-5.57,-57.13,-25.49,-0.27,-1.3,-2.0,4.0527
1.19,0.1,-0.17,-80.09,30.81,-183.74,-9.96,-58.59,-25.49,0.08,-1.41,-1.73,4.1226
1.18,0.14,-0.12,0.38,14.43,-73.43,-11.13,-58.01,-26.37,0.12,-1.42,-1.71,4.1963
1.22,0.2,-0.16,20.92,-2.98,-135.5,-14.65,-57.42,-26.95,0.16,-1.36,-1.73,4.2738
1.02,0.5,-0.14,30.88,9.88,-126.44,-17.29,-56.54,-27.25,0.45,-1.1,-1.55,4.3475
0.94,0.64,-0.17,-26.47,-55.05,-202.11,-21.39,-53.32,-26.66,0.59,-0.95,-1.61,4.4212
0.83,0.94,-0.14,-32.12,-15.98,-54.34,-22.56,-52.73,-26.37,0.84,-0.72,-1.64,4.4951
0.59,1.01,-0.1,-65.13,-20.56,-53.55,-23.44,-51.27,-26.37,1.04,-0.52,-1.73,4.5687
0.46,0.94,-0.06,-16.07,-41.04,-91.01,-24.9,-49.8,-26.37,1.12,-0.45,-1.79,4.6425
0.18,0.61,-0.03,66.3,-75.41,-250.0,-25.49,-41.89,-27.83,1.28,-0.29,-1.99,4.7162
-0.1,0.91,-0.14,20.77,60.56,-250.0,-25.78,-36.62,-28.12,1.39,0.11,-2.4,4.7899
-0.44,0.55,-0.23,10.99,-8.19,-111.9,-24.9,-34.86,-28.71,0.85,0.63,-2.92,4.8637
-0.61,0.84,-0.11,10.55,-39.58,-172.94,-22.27,-31.93,-28.12,0.93,0.63,-2.94,4.9374
-0.76,0.75,-0.12,-7.65,-87.76,-168.39,-20.51,-29.59,-26.95,0.77,0.79,-3.1,5.0114
-0.77,0.81,0.06,-11.95,10.93,-125.69,-17.58,-27.25,-27.83,0.81,0.76,-3.13,5.0849
-0.6,0.18,-0.26,8.3,-10.34,-170.39,-15.23,-26.95,-27.54,0.27,1.09,2.69,5.1586
-0.98,0.12,-0.14,30.74,-75.42,-149.38,-11.13,-26.95,-26.95,0.12,1.38,2.18,5.2324
-0.87,-0.13,0.0,34.8,-36.9,-57.27,-9.96,-27.25,-26.37,-0.15,1.42,1.8,5.3061
-0.78,-0.1,0.01,-18.1,7.71,46.4,-11.13,-26.95,-26.07,-0.12,1.44,1.89,5.3799
-0.77,-0.06,0.01,-24.79,24.1,143.46,-13.18,-26.37,-25.78,-0.08,1.49,2.0,5.4536
-0.94,0.18,-0.02,-1.83,18.55,193.34,-16.7,-27.54,-25.78,0.18,1.39,2.4,5.5273
-0.92,0.5,0.0,27.37,-35.6,249.99,-22.85,-31.93,-27.25,0.5,1.07,2.93,5.6011
-0.42,0.83,-0.1,78.85,14.73,204.75,-26.07,-36.33,-28.42,1.09,0.47,-2.76,5.6748
-0.27,0.96,-0.1,12.47,3.07,140.77,-24.9,-37.79,-27.83,1.28,0.27,-2.54,5.7484
-0.1,1.06,-0.15,20.39,21.64,185.11,-25.49,-41.6,-28.71,1.4,0.1,-2.33,5.8223
0.12,0.98,-0.27,47.36,38.48,237.68,-25.2,-47.46,-29.0,1.28,-0.11,-2.1,5.8962
0.58,1.02,-0.16,36.06,-61.57,134.68,-22.27,-51.86,-29.59,1.04,-0.51,-1.76,5.9697
0.85,0.76,-0.36,34.0,20.89,249.99,-17.29,-55.66,-28.12,0.69,-0.79,-1.58,6.0436
1.09,0.43,-0.33,9.71,28.09,218.95,-10.84,-56.84,-28.12,0.36,-1.11,-1.5,6.1173
1.11,-0.04,-0.25,30.62,8.13,189.34,-7.03,-56.84,-28.42,-0.04,-1.34,-1.79,6.1909
1.08,-0.06,-0.2,5.81,1.56,83.21,-4.98,-55.96,-27.83,-0.06,-1.38,-1.78,6.2646
1.15,-0.24,-0.21,-1.84,1.75,13.25,-4.98,-56.25,-27.54,-0.2,-1.3,-1.9,6.3383
1.1,-0.28,-0.21,9.36,6.09,-90.59,-7.03,-56.84,-28.12,-0.24,-1.27,-1.96,6.4121
1.08,0.08,-0.2,-39.38,-14.79,-152.29,-9.38,-56.54,-27.83,0.08,-1.37,-1.71,6.4897
1.23,0.14,-0.26,-48.04,-5.52,-79.07,-12.01,-56.84,-29.0,0.11,-1.34,-1.73,6.5634
1.0,0.2,-0.28,-2.98,-17.04,-127.39,-15.23,-55.96,-29.59,0.19,-1.24,-1.72,6.6371
1.08,0.44,-0.24,35.61,7.74,-64.79,-16.7,-56.25,-29.0,0.37,-1.14,-1.6,6.7108
0.84,0.48,-0.2,21.25,1.38,-151.45,-18.16,-54.2,-29.0,0.51,-1.02,-1.59,6.7845
0.84,0.74,-0.23,-8.71,-4.95,-175.87,-21.97,-52.15,-29.59,0.7,-0.83,-1.66,6.8583
0.63,0.94,-0.24,-32.48,-35.94,-250.0,-24.32,-48.34,-29.3,0.95,-0.57,-1.79,6.932
0.75,0.88,-0.26,2.88,-50.62,-98.01,-25.49,-45.7,-29.88,0.84,-0.68,-1.8,7.0057
0.28,1.04,-0.26,16.46,46.62,-161.56,-26.37,-42.19,-29.3,1.22,-0.26,-2.06,7.0795
-0.07,1.16,-0.25,46.24,-29.34,-250.0,-24.61,-35.74,-29.88,1.35,0.06,-2.4,7.1532
-0.39,0.95,-0.26,17.07,-16.13,-159.54,-23.44,-32.23,-29.88,1.11,0.38,-2.75,7.227
-0.58,1.02,-0.08,-18.04,-37.12,-246.32,-21.09,-30.18,-29.88,1.05,0.52,-2.9,7.3007
-0.91,0.79,-0.16,-33.48,-94.18,-192.2,-17.87,-28.42,-28.12,0.71,0.84,3.09,7.3744
-0.96,0.34,-0.15,14.93,-68.95,-145.81,-15.53,-27.25,-28.12,0.34,1.2,2.59,7.4481
-0.94,0.24,-0.04,8.42,-16.49,-49.71,-13.48,-27.25,-27.83,0.25,1.32,2.39,7.5218
-0.76,0.17,-0.06,-0.74,0.15,-14.75,-12.89,-26.95,-27.25,0.22,1.34,2.34,7.5956
-0.92,0.16,-0.03,0.24,1.45,48.1,-14.65,-26.07,-27.54,0.18,1.39,2.29,7.6693
-0.89,0.22,-0.03,21.15,-49.61,249.99,-20.21,-28.42,-26.37,0.25,1.32,2.56,7.7431
-0.64,0.63,-0.09,64.32,11.72,249.99,-25.49,-36.33,-26.95,0.77,0.79,-3.01,7.8168
-0.14,0.9,-0.1,45.21,3.43,226.1,-26.95,-41.31,-27.83,1.39,0.15,-2.37,7.8906
0.13,1.01,-0.11,20.74,-4.62,188.56,-25.78,-44.53,-28.42,1.4,-0.13,-2.08,7.9642
0.55,1.13,-0.22,62.88,45.27,249.99,-21.97,-51.86,-28.71,1.09,-0.44,-1.79,8.038
0.71,0.96,-0.11,34.37,63.4,249.99,-16.7,-57.13,-28.71,0.93,-0.64,-1.59,8.1117
