Ax,Ay,Az,Gx,Gy,Gz,Mx,My,MZ,Roll,Pitch,Yaw,Time
-0.08,-1.0,-0.22,-43.56,-140.58,61.31,6.74,-46.58,-31.64,-1.34,0.08,-0.88,0.0016
-0.07,-1.28,-0.12,-43.01,-106.19,163.31,4.69,-43.36,-32.81,-1.46,0.06,-0.86,0.0023
-0.28,-0.17,-1.11,-250.0,66.68,91.9,1.17,-39.55,-36.62,-0.15,0.24,-1.31,0.0029
-0.38,-0.78,-0.38,-250.0,126.52,159.17,-5.86,-39.84,-40.14,-0.96,0.42,-0.47,0.0035
-0.98,-1.04,-1.41,-55.52,-7.83,71.12,-7.03,-40.14,-40.43,-0.55,0.51,-0.6,0.0041
-0.45,-0.53,-0.37,83.9,-121.57,-19.64,-5.57,-38.38,-39.55,-0.74,0.61,-0.27,0.0047
-0.4,-0.55,-0.97,51.29,-125.85,4.14,-3.81,-37.21,-37.5,-0.48,0.35,-0.87,0.0054
-0.36,-0.31,-1.11,-44.92,98.12,-77.19,-3.52,-38.09,-39.26,-0.26,0.3,-1.22,0.006
-0.39,-0.42,-0.63,-24.63,186.08,104.31,-5.57,-40.43,-40.72,-0.52,0.47,-0.67,0.0066
-0.88,-0.68,-0.95,-95.44,-8.1,-51.29,-7.62,-42.19,-42.77,-0.49,0.65,-0.36,0.0072
-0.48,-0.54,-0.35,2.18,-21.55,70.81,-7.62,-41.6,-42.48,-0.74,0.64,-0.23,0.0078
-0.57,-0.73,-0.86,108.76,-53.91,-3.85,-4.98,-40.14,-41.31,-0.61,0.46,-0.56,0.0085
-0.43,-0.39,-0.9,105.42,-57.43,-17.94,-2.64,-39.55,-40.72,-0.37,0.42,-0.86,0.0091
-0.06,-0.12,-0.58,13.92,65.23,108.79,-2.64,-39.55,-41.31,-0.21,0.11,-1.38,0.0097
-0.51,-0.51,-1.02,-103.79,175.58,25.76,-5.27,-42.48,-43.07,-0.42,0.42,-0.86,0.0103
-0.94,-0.68,-0.96,27.4,119.58,98.01,-4.98,-45.7,-44.53,-0.47,0.67,-0.32,0.0109
-0.93,-0.75,-0.88,110.85,-13.88,58.49,-3.52,-45.7,-43.95,-0.53,0.68,-0.27,0.0115
-0.94,-0.53,-1.19,108.96,-195.82,-93.57,-0.29,-42.77,-42.19,-0.34,0.62,-0.48,0.012
-0.19,-0.07,-0.8,181.37,-54.44,88.01,2.34,-41.02,-40.43,-0.08,0.24,-1.37,0.0125
-0.29,-0.07,-0.97,-51.24,60.46,55.14,0.88,-41.02,-40.14,-0.07,0.29,-1.42,0.013
-0.46,-0.26,-0.71,-168.16,88.15,60.85,-2.05,-42.77,-42.48,-0.3,0.55,-0.76,0.0136
-0.77,-0.7,-0.97,-76.26,0.32,55.52,-4.69,-42.48,-43.65,-0.51,0.57,-0.45,0.0141
-0.6,-0.67,-0.78,35.76,-112.51,-21.82,-3.81,-40.72,-42.77,-0.6,0.53,-0.43,0.0146
-0.45,-0.54,-1.01,75.55,-77.37,-94.54,-1.17,-40.43,-40.72,-0.46,0.37,-0.8,0.0151
-0.45,-0.4,-1.14,67.61,197.78,6.77,0.0,-44.53,-40.72,-0.31,0.35,-1.03,0.0157
-0.73,-0.38,-0.99,30.0,249.99,86.26,0.88,-49.8,-41.02,-0.3,0.6,-0.74,0.0162
-1.14,-0.36,-0.9,-56.79,6.3,-66.96,-0.88,-51.56,-41.31,-0.25,0.87,-0.12,0.0167
-0.6,-0.18,-0.29,-19.55,-250.0,13.02,-1.76,-46.0,-41.6,-0.27,1.05,0.75,0.0174
-0.41,-0.49,-1.28,-41.89,-211.27,16.04,-2.34,-41.02,-40.43,-0.35,0.29,-1.07,0.0179
-0.2,-0.41,-1.06,-74.05,25.02,-10.67,-4.39,-40.72,-40.14,-0.37,0.18,-1.21,0.0185
-0.3,-0.43,-0.71,-48.46,228.38,2.13,-5.27,-45.41,-41.02,-0.51,0.35,-0.93,0.019
-0.8,-0.66,-0.97,96.58,171.29,-22.29,-3.52,-48.93,-41.31,-0.49,0.6,-0.58,0.0195
-1.05,-0.42,-1.12,186.8,-35.44,-82.68,-0.29,-50.39,-39.84,-0.27,0.72,-0.61,0.0201
-0.89,-0.18,-1.33,51.25,-127.01,-60.17,0.88,-48.05,-38.67,-0.11,0.58,-1.2,0.0206
-0.28,0.03,-0.72,-1.28,-31.45,22.11,1.17,-47.75,-38.38,0.04,0.37,-1.6,0.0211
-0.31,-0.14,-0.93,-36.64,24.2,78.28,-0.29,-46.88,-38.96,-0.14,0.32,-1.35,0.0215
-0.28,-0.37,-0.71,-104.99,42.37,145.67,-2.34,-45.12,-40.72,-0.45,0.34,-0.94,0.022
-0.56,-0.65,-0.87,-149.74,-98.88,14.96,-4.69,-43.07,-40.43,-0.56,0.48,-0.65,0.0224
-0.43,-0.78,-1.05,58.27,-44.01,-18.44,-4.39,-42.19,-39.26,-0.6,0.32,-0.84,0.0229
-0.23,-0.51,-0.75,76.87,41.17,-125.39,-2.93,-43.65,-39.84,-0.57,0.25,-0.92,0.0233
-0.62,-0.48,-1.05,107.19,124.83,-85.83,-0.29,-46.0,-38.96,-0.38,0.5,-0.82,0.0238
-1.04,-0.49,-1.54,74.76,84.57,-87.57,2.05,-48.63,-37.5,-0.26,0.57,-0.89,0.0242
-0.56,-0.18,-0.49,61.16,60.18,103.35,2.64,-49.22,-36.91,-0.24,0.82,-0.37,0.0247
-0.67,-0.33,-0.85,-76.73,-93.49,20.52,1.46,-46.88,-37.5,-0.3,0.63,-0.71,0.0251
-0.52,-0.4,-1.13,23.84,-72.17,60.4,1.46,-43.95,-36.62,-0.31,0.41,-0.99,0.0256
-0.12,-0.26,-0.65,-39.74,73.11,70.62,1.46,-43.95,-36.91,-0.38,0.17,-1.12,0.026
-0.52,-0.58,-1.1,37.39,128.14,98.53,0.88,-45.41,-37.79,-0.45,0.4,-0.86,0.0264
-0.65,-0.59,-1.17,198.1,163.69,103.45,4.69,-47.46,-35.74,-0.41,0.46,-0.8,0.0269
-0.67,-0.26,-1.12,127.35,27.61,-60.91,5.86,-47.75,-33.11,-0.2,0.53,-0.99,0.0274
-0.49,-0.18,-1.51,63.71,207.89,89.32,6.74,-47.75,-32.23,-0.11,0.31,-1.25,0.0278
-0.15,-0.03,-0.51,-109.09,177.26,136.92,6.15,-47.75,-33.98,-0.05,0.29,-1.34,0.0283
-0.52,-0.37,-0.94,-23.68,3.55,130.44,5.86,-45.41,-34.86,-0.33,0.47,-0.83,0.0288
-0.23,-0.28,-1.02,-16.3,-15.1,139.2,3.81,-41.89,-34.57,-0.26,0.22,-1.16,0.0292
-0.19,-0.42,-1.12,-32.46,87.1,142.79,2.34,-41.31,-35.45,-0.36,0.16,-1.13,0.0297
-0.17,-0.44,-0.97,132.03,90.44,170.2,2.64,-40.14,-35.45,-0.42,0.16,-1.06,0.0301
-0.21,-0.23,-0.96,81.26,10.64,122.88,2.34,-38.67,-35.16,-0.23,0.21,-1.19,0.0306
-0.15,-0.2,-1.06,-41.95,11.28,88.53,0.88,-37.21,-35.45,-0.18,0.13,-1.33,0.031
-0.08,-0.19,-0.77,-40.91,-56.6,-30.15,2.93,-37.5,-33.98,-0.24,0.1,-1.23,0.0315
-0.18,-0.18,-1.16,91.65,43.65,-9.14,4.39,-39.84,-33.4,-0.16,0.15,-1.28,0.0319
-0.41,-0.21,-1.75,187.13,30.63,-9.7,4.39,-42.48,-35.16,-0.12,0.23,-1.3,0.0324
-0.2,0.31,-1.38,-33.78,-6.93,-39.04,3.81,-46.58,-40.14,0.22,0.14,-1.73,0.0328
-0.35,0.04,-1.67,-133.12,187.9,98.71,-0.29,-53.32,-39.26,0.03,0.21,-1.61,0.0332
-0.42,-0.16,-1.07,-106.12,83.6,75.52,-2.05,-56.25,-39.84,-0.14,0.37,-1.41,0.0336
-0.75,-0.47,-1.55,-11.87,-102.87,-61.24,-1.46,-53.32,-39.84,-0.27,0.43,-1.15,0.034
0.03,0.03,-1.02,153.66,-147.07,-29.43,3.52,-49.51,-35.45,0.03,-0.03,-1.52,0.0344
0.45,0.43,-1.15,73.39,49.86,63.71,4.1,-48.34,-34.86,0.33,-0.35,-1.59,0.0348
-0.11,0.16,-1.35,-250.0,214.28,-78.56,-0.88,-50.68,-38.38,0.12,0.08,-1.69,0.0352
-0.28,0.15,-0.63,152.15,249.99,-250.0,-2.05,-58.01,-26.07,0.21,0.4,-1.84,0.0356
1.47,0.59,-1.27,166.7,-113.67,127.29,2.34,-57.71,-33.4,0.3,-0.81,-1.45,0.036
-0.58,0.05,-1.51,-100.43,-124.01,-250.0,4.69,-53.91,-33.98,0.03,0.37,-1.49,0.0364
0.06,0.44,-1.12,-70.69,-26.86,-42.91,4.69,-47.75,-35.74,0.37,-0.05,-1.73,0.0368
-0.18,-0.31,-2.0,72.83,128.32,126.01,2.05,-46.29,-36.91,-0.15,0.09,-1.38,0.0372
-0.0,0.09,-1.09,-47.21,79.61,-88.61,0.0,-51.56,-38.38,0.08,0.0,-1.63,0.0376
0.23,0.28,-1.1,-25.09,-31.43,113.83,-0.29,-52.44,-38.67,0.25,-0.2,-1.69,0.038
0.28,0.15,-1.11,17.5,77.21,-129.05,-0.88,-51.27,-38.96,0.13,-0.24,-1.64,0.0384
0.06,0.1,-1.31,6.45,-15.35,-22.09,-0.29,-51.27,-38.38,0.08,-0.04,-1.63,0.0387
0.2,0.19,-1.16,-8.29,13.34,75.53,0.0,-51.27,-38.38,0.16,-0.17,-1.65,0.0391
0.15,0.19,-1.19,-8.6,-14.85,-26.48,0.29,-51.27,-38.96,0.16,-0.13,-1.65,0.0395
0.26,0.18,-1.26,8.82,8.93,30.97,-0.29,-51.27,-38.38,0.14,-0.2,-1.64,0.0399
0.25,0.18,-1.25,5.38,3.23,14.77,0.29,-50.98,-37.79,0.14,-0.2,-1.63,0.0403
0.2,0.17,-1.22,-0.36,-5.67,-7.56,-0.29,-52.15,-37.21,0.13,-0.16,-1.64,0.0406
0.22,0.17,-1.23,4.15,0.37,7.72,0.59,-51.27,-38.38,0.13,-0.17,-1.63,0.041
0.22,0.19,-1.23,6.93,3.4,9.04,0.88,-50.68,-38.38,0.15,-0.18,-1.63,0.0414
0.2,0.17,-1.21,-0.84,-5.63,-6.55,0.0,-51.86,-38.09,0.14,-0.16,-1.64,0.0418
0.23,0.17,-1.22,3.6,-1.37,8.47,0.88,-51.86,-38.67,0.14,-0.19,-1.62,0.0421
0.22,0.19,-1.25,6.79,3.85,6.48,0.29,-50.68,-38.38,0.15,-0.17,-1.64,0.0425
0.18,0.16,-1.23,-0.98,-5.2,-15.05,0.29,-51.27,-38.67,0.13,-0.15,-1.63,0.0429
0.2,0.17,-1.25,5.61,2.66,3.17,0.29,-51.56,-38.38,0.13,-0.16,-1.63,0.0433
0.2,0.17,-1.25,5.2,2.49,4.18,0.88,-50.98,-38.09,0.14,-0.16,-1.63,0.0436
0.19,0.16,-1.23,1.14,-2.11,-9.12,0.88,-51.86,-38.09,0.13,-0.15,-1.62,0.044
0.2,0.17,-1.24,3.38,0.18,2.32,0.0,-51.86,-38.38,0.13,-0.16,-1.64,0.0444
0.22,0.18,-1.24,5.23,0.56,5.98,1.17,-51.56,-38.38,0.14,-0.17,-1.62,0.0447
0.21,0.17,-1.24,2.54,-0.77,-0.95,-0.59,-51.27,-38.09,0.13,-0.16,-1.65,0.0451
0.2,0.17,-1.24,3.49,-1.62,-0.85,0.0,-51.27,-38.09,0.13,-0.16,-1.64,0.0455
0.21,0.18,-1.23,2.65,-1.82,0.51,0.59,-52.15,-38.09,0.14,-0.17,-1.63,0.0458
0.2,0.17,-1.24,3.47,0.24,-0.24,-0.59,-51.56,-38.09,0.13,-0.16,-1.65,0.0462
0.19,0.17,-1.24,2.49,-0.5,-2.18,0.59,-51.56,-38.38,0.14,-0.15,-1.63,0.0466
0.21,0.17,-1.24,1.1,-3.28,-2.1,0.29,-51.27,-38.09,0.14,-0.16,-1.63,0.047
0.2,0.17,-1.25,3.66,1.56,-0.17,0.59,-51.86,-38.38,0.13,-0.16,-1.63,0.0474
0.19,0.16,-1.25,3.09,1.43,-1.93,0.88,-51.56,-38.67,0.13,-0.15,-1.62,0.0477
0.21,0.17,-1.23,1.87,-2.62,-0.82,0.59,-50.98,-37.5,0.14,-0.16,-1.63,0.0481
0.21,0.17,-1.24,4.04,0.23,0.9,0.59,-52.15,-38.96,0.13,-0.17,-1.63,0.0485
0.2,0.17,-1.24,3.33,0.47,-1.63,-0.59,-51.56,-38.38,0.13,-0.16,-1.65,0.0488
0.2,0.17,-1.24,1.01,-3.11,-1.64,-1.17,-50.98,-38.09,0.13,-0.16,-1.66,0.0492
0.2,0.18,-1.24,4.38,0.67,0.03,0.88,-51.27,-38.67,0.14,-0.16,-1.63,0.0496
0.2,0.17,-1.25,3.38,1.47,-0.5,0.59,-51.86,-38.38,0.13,-0.15,-1.63,0.0499
0.2,0.17,-1.23,1.54,-3.2,-1.11,0.59,-51.27,-38.09,0.13,-0.16,-1.63,0.0503
0.2,0.17,-1.24,3.52,-0.16,0.26,-0.29,-51.27,-38.09,0.13,-0.16,-1.64,0.0507
0.2,0.17,-1.24,2.32,-0.95,-1.58,0.0,-51.56,-38.38,0.13,-0.16,-1.64,0.051
0.2,0.17,-1.24,1.99,-1.09,-2.43,0.29,-51.56,-38.09,0.13,-0.16,-1.63,0.0514
0.2,0.17,-1.24,2.86,1.63,1.8,0.29,-51.86,-37.5,0.13,-0.16,-1.63,0.0518
0.19,0.16,-1.25,2.65,1.0,0.31,0.29,-50.98,-37.79,0.12,-0.15,-1.63,0.0521
0.2,0.17,-1.24,2.78,-2.0,-0.05,-0.88,-51.56,-38.38,0.13,-0.16,-1.66,0.0525
0.2,0.17,-1.24,2.88,-0.89,-1.25,0.29,-50.98,-38.09,0.13,-0.16,-1.63,0.0529
0.2,0.16,-1.25,2.8,-0.05,-0.82,0.59,-52.15,-38.38,0.13,-0.16,-1.62,0.0532
0.2,0.17,-1.24,3.72,-0.14,-0.14,0.59,-51.56,-38.38,0.13,-0.16,-1.63,0.0536
0.2,0.17,-1.24,3.33,0.03,-0.81,0.0,-51.56,-38.09,0.13,-0.16,-1.64,0.054
0.2,0.16,-1.24,2.35,-1.1,-0.98,0.29,-51.27,-38.38,0.13,-0.16,-1.63,0.0543
0.2,0.17,-1.24,4.01,0.31,0.34,0.29,-51.56,-38.38,0.14,-0.16,-1.64,0.0547
0.2,0.17,-1.23,2.76,-0.66,-1.76,0.29,-52.15,-37.79,0.13,-0.16,-1.63,0.0551
0.2,0.16,-1.24,1.72,-1.83,-1.37,0.29,-51.27,-37.79,0.13,-0.16,-1.63,0.0554
0.2,0.17,-1.24,2.86,-1.04,-0.57,0.59,-51.27,-38.09,0.14,-0.16,-1.63,0.0558
0.2,0.16,-1.24,2.69,-0.24,-0.85,0.29,-51.56,-38.38,0.13,-0.16,-1.63,0.0562
0.2,0.17,-1.25,3.5,0.59,0.1,0.0,-51.86,-38.09,0.13,-0.16,-1.64,0.0566
0.2,0.17,-1.24,2.79,-0.27,-0.76,0.29,-51.86,-38.67,0.14,-0.16,-1.64,0.0569
0.2,0.17,-1.24,2.79,-0.05,-0.55,0.29,-51.27,-38.38,0.13,-0.16,-1.64,0.0574
0.19,0.17,-1.24,2.73,-1.18,-2.33,0.59,-50.98,-38.67,0.14,-0.15,-1.64,0.0577
0.2,0.16,-1.24,1.71,-2.45,-1.04,0.59,-50.98,-37.21,0.13,-0.16,-1.63,0.0581
0.2,0.17,-1.25,3.66,0.95,-0.63,0.29,-51.86,-38.67,0.13,-0.15,-1.63,0.0585
0.2,0.16,-1.23,3.04,-0.25,-0.74,0.29,-51.27,-38.38,0.13,-0.16,-1.63,0.0588
0.2,0.17,-1.24,1.86,-2.68,-0.34,0.29,-51.56,-38.38,0.13,-0.16,-1.63,0.0592
0.2,0.17,-1.24,3.56,0.55,-0.2,0.0,-51.56,-37.5,0.13,-0.16,-1.64,0.0596
0.2,0.16,-1.24,1.85,-1.34,-1.03,-0.29,-51.56,-38.38,0.13,-0.16,-1.64,0.0599
0.2,0.17,-1.24,3.75,0.81,0.18,0.0,-51.86,-38.38,0.14,-0.16,-1.64,0.0603
0.19,0.17,-1.24,3.64,0.53,-3.27,0.29,-51.27,-38.09,0.13,-0.15,-1.64,0.0607
0.2,0.17,-1.24,2.75,-0.89,-1.11,0.88,-51.27,-38.38,0.13,-0.16,-1.62,0.061
0.2,0.17,-1.24,2.62,-1.47,-1.08,0.29,-51.56,-38.09,0.13,-0.16,-1.63,0.0614
0.2,0.16,-1.25,4.07,1.76,-0.09,-0.29,-51.56,-38.38,0.13,-0.16,-1.64,0.0618
0.2,0.17,-1.24,3.19,-1.1,-0.4,0.0,-51.27,-38.09,0.13,-0.16,-1.64,0.0622
0.21,0.17,-1.24,2.5,-1.42,-0.82,0.59,-51.56,-38.09,0.13,-0.16,-1.63,0.0625
0.19,0.17,-1.24,2.97,0.25,-0.69,-0.29,-51.86,-38.09,0.13,-0.15,-1.64,0.0629
0.2,0.17,-1.23,2.64,-2.04,-0.31,0.59,-51.56,-38.09,0.13,-0.16,-1.63,0.0633
0.2,0.17,-1.24,2.61,-1.71,-0.63,-0.29,-51.56,-37.79,0.13,-0.16,-1.64,0.0637
0.19,0.17,-1.24,3.36,0.51,-0.22,0.59,-51.27,-38.67,0.13,-0.15,-1.63,0.064
0.19,0.17,-1.24,2.09,-1.9,-0.81,0.88,-51.56,-37.79,0.13,-0.15,-1.62,0.0644
0.2,0.17,-1.24,3.18,-1.22,-0.31,0.29,-51.86,-38.38,0.13,-0.16,-1.64,0.0648
0.19,0.17,-1.24,3.21,0.64,-1.61,0.0,-51.56,-38.67,0.13,-0.15,-1.64,0.0651
0.2,0.18,-1.23,2.66,-0.26,-0.21,0.0,-50.98,-37.79,0.14,-0.16,-1.64,0.0655
0.19,0.17,-1.24,2.65,-0.08,-0.21,-0.29,-50.98,-37.79,0.13,-0.15,-1.65,0.0659
0.19,0.17,-1.24,2.41,-1.1,-0.43,-0.59,-52.15,-38.96,0.13,-0.15,-1.65,0.0663
0.21,0.16,-1.23,3.04,-0.24,-0.94,0.88,-51.27,-37.79,0.13,-0.17,-1.62,0.0666
0.19,0.16,-1.24,5.37,2.56,1.91,0.0,-51.86,-37.79,0.13,-0.15,-1.64,0.067
0.19,0.17,-1.23,2.25,-1.69,-1.74,0.0,-51.56,-38.09,0.14,-0.15,-1.64,0.0674
0.2,0.17,-1.24,1.79,-2.3,-1.08,0.29,-52.15,-38.96,0.13,-0.16,-1.63,0.0678
0.2,0.17,-1.25,2.78,1.36,-0.37,0.29,-51.27,-37.79,0.13,-0.15,-1.63,0.0681
0.19,0.17,-1.24,2.41,-2.04,-0.37,0.0,-51.86,-37.79,0.14,-0.15,-1.64,0.0685
0.2,0.17,-1.23,2.59,-1.52,-0.53,0.29,-51.56,-38.38,0.13,-0.16,-1.63,0.0689
0.19,0.16,-1.24,3.56,1.02,-0.73,0.29,-50.39,-38.38,0.13,-0.15,-1.64,0.0692
0.2,0.17,-1.23,2.43,-1.63,-0.35,-0.59,-51.56,-38.67,0.13,-0.16,-1.65,0.0696
0.2,0.17,-1.24,2.42,-1.43,-0.73,0.88,-51.56,-38.09,0.13,-0.16,-1.62,0.07
0.19,0.16,-1.24,3.08,0.36,-0.51,0.0,-51.56,-38.09,0.13,-0.15,-1.64,0.0703
0.19,0.17,-1.24,2.28,-1.78,-0.69,0.29,-51.56,-38.09,0.13,-0.15,-1.64,0.0707
0.19,0.17,-1.24,2.4,-1.88,-0.57,0.88,-51.86,-38.38,0.13,-0.15,-1.62,0.0711
0.19,0.17,-1.25,3.5,0.96,-0.63,0.88,-52.15,-38.38,0.13,-0.15,-1.62,0.0714
0.19,0.17,-1.24,3.28,-0.19,-0.61,0.0,-51.56,-38.09,0.13,-0.15,-1.64,0.0718
0.19,0.17,-1.24,2.69,-1.0,-0.29,0.29,-51.27,-37.21,0.13,-0.15,-1.63,0.0722
0.19,0.16,-1.23,2.73,-0.76,-0.65,0.0,-52.15,-38.38,0.13,-0.15,-1.64,0.0725
0.2,0.17,-1.24,2.8,-0.42,-0.64,-0.29,-51.86,-38.67,0.13,-0.16,-1.65,0.0729
0.19,0.17,-1.24,3.12,-0.35,-0.77,0.0,-51.56,-38.96,0.13,-0.15,-1.64,0.0733
0.19,0.16,-1.24,2.78,-0.56,-0.6,0.29,-52.44,-38.67,0.13,-0.15,-1.63,0.0737
0.19,0.17,-1.24,2.97,-1.12,-0.82,0.0,-52.15,-37.79,0.13,-0.15,-1.64,0.074
0.19,0.16,-1.23,3.09,2.54,-3.2,0.0,-51.27,-37.79,0.13,-0.15,-1.64,0.0744
0.18,0.17,-1.25,3.22,1.0,-0.19,0.0,-51.86,-38.09,0.13,-0.14,-1.64,0.0748
0.19,0.17,-1.24,2.91,-0.63,-0.91,0.0,-51.86,-38.09,0.13,-0.15,-1.64,0.0752
0.19,0.17,-1.24,2.68,-1.19,-0.68,0.59,-52.15,-38.38,0.13,-0.15,-1.63,0.0755
0.19,0.16,-1.24,2.78,0.15,-0.84,0.29,-51.56,-38.38,0.13,-0.15,-1.63,0.0759
0.19,0.16,-1.25,1.99,-1.72,-0.77,0.29,-50.98,-38.09,0.13,-0.15,-1.63,0.0763
0.19,0.17,-1.24,3.72,-0.65,-0.18,-0.29,-51.56,-38.09,0.13,-0.15,-1.65,0.0767
0.19,0.18,-1.24,3.77,0.66,-0.53,0.59,-50.98,-37.79,0.14,-0.15,-1.63,0.077
0.19,0.16,-1.25,1.95,-1.95,-0.98,1.17,-51.86,-39.26,0.13,-0.15,-1.62,0.0774
0.2,0.17,-1.24,3.35,-0.29,-0.56,0.29,-51.56,-37.79,0.13,-0.15,-1.63,0.0778
0.19,0.17,-1.25,3.91,0.44,-0.92,0.59,-50.98,-37.5,0.13,-0.15,-1.63,0.0781
0.19,0.16,-1.24,2.43,-1.0,-0.69,0.0,-51.27,-38.38,0.13,-0.15,-1.64,0.0785
0.19,0.16,-1.24,3.32,-0.27,-0.6,0.88,-51.56,-38.09,0.13,-0.15,-1.62,0.0789
0.19,0.17,-1.24,3.15,-0.45,-0.4,0.29,-51.27,-37.79,0.14,-0.15,-1.64,0.0793
0.19,0.16,-1.24,2.49,-1.11,-0.61,0.29,-50.98,-38.09,0.13,-0.15,-1.63,0.0796
0.19,0.16,-1.24,3.11,-0.28,-0.56,0.0,-51.27,-37.5,0.13,-0.15,-1.64,0.08
0.19,0.17,-1.24,2.98,-1.63,-0.77,0.0,-50.98,-38.09,0.14,-0.15,-1.64,0.0804
0.19,0.16,-1.24,2.07,-1.56,-0.85,-0.29,-50.98,-37.5,0.13,-0.15,-1.64,0.0808
0.19,0.16,-1.24,3.09,-0.02,-0.38,0.59,-50.68,-38.09,0.13,-0.15,-1.63,0.0811
0.19,0.17,-1.24,3.33,-0.27,-0.49,0.0,-51.86,-37.79,0.13,-0.15,-1.64,0.0815
0.19,0.16,-1.24,2.69,-0.27,-0.9,1.17,-52.15,-38.67,0.13,-0.15,-1.62,0.0819
0.19,0.16,-1.24,3.11,0.1,-0.58,0.29,-50.98,-38.09,0.13,-0.15,-1.63,0.0822
0.19,0.16,-1.24,2.92,-1.01,-0.75,0.59,-50.98,-38.38,0.13,-0.15,-1.63,0.0826
0.19,0.16,-1.24,2.7,-0.98,-0.44,0.0,-51.27,-38.09,0.13,-0.15,-1.64,0.083
0.19,0.16,-1.24,3.44,0.09,-0.46,1.17,-51.27,-38.09,0.13,-0.15,-1.62,0.0833
0.19,0.16,-1.24,2.86,-0.53,-0.54,0.0,-50.98,-38.09,0.13,-0.15,-1.64,0.0837
0.19,0.16,-1.24,3.04,-0.27,-0.83,0.88,-51.27,-37.79,0.13,-0.15,-1.62,0.0841
0.19,0.16,-1.23,2.94,-0.37,-0.9,-0.29,-51.56,-38.67,0.13,-0.15,-1.65,0.0845
0.19,0.17,-1.24,3.02,-0.76,-0.63,-0.59,-50.68,-37.5,0.13,-0.15,-1.65,0.0848
0.2,0.16,-1.24,3.17,0.14,-0.76,-0.59,-50.98,-37.5,0.13,-0.16,-1.65,0.0852
0.19,0.16,-1.24,2.99,-0.56,-0.5,0.29,-51.27,-38.38,0.13,-0.15,-1.63,0.0856
0.19,0.16,-1.24,2.48,-1.14,-0.72,0.0,-51.56,-38.38,0.13,-0.15,-1.64,0.0859
0.19,0.16,-1.24,3.13,0.03,-0.33,0.0,-50.68,-38.67,0.13,-0.15,-1.64,0.0863
0.19,0.16,-1.24,2.87,0.8,-0.74,0.59,-50.98,-37.79,0.13,-0.15,-1.63,0.0867
0.19,0.17,-1.24,2.89,-1.97,-0.48,0.29,-51.27,-38.09,0.14,-0.15,-1.64,0.087
0.2,0.16,-1.24,2.75,0.11,-0.62,-0.29,-50.68,-37.79,0.13,-0.15,-1.64,0.0874
0.19,0.16,-1.25,3.15,0.1,-0.46,0.0,-52.15,-38.67,0.13,-0.15,-1.64,0.0878
0.19,0.16,-1.24,2.82,-1.66,-0.55,0.29,-50.98,-38.38,0.13,-0.15,-1.64,0.0881
0.19,0.16,-1.24,2.85,-0.98,-0.89,0.0,-50.68,-38.09,0.13,-0.15,-1.64,0.0885
0.18,0.16,-1.24,3.24,0.37,-0.25,0.59,-52.15,-38.67,0.13,-0.15,-1.63,0.0889
0.2,0.17,-1.24,2.22,-2.93,-0.69,0.0,-51.56,-38.09,0.13,-0.16,-1.64,0.0893
0.19,0.16,-1.25,3.13,0.02,-0.63,0.0,-50.98,-38.38,0.12,-0.15,-1.64,0.0896
0.19,0.17,-1.24,3.27,0.3,-0.58,0.29,-51.27,-38.38,0.13,-0.15,-1.64,0.09
0.19,0.16,-1.24,2.05,-2.23,-0.54,0.29,-50.68,-37.5,0.13,-0.15,-1.63,0.0904
0.19,0.16,-1.24,3.79,1.24,-0.91,0.59,-52.15,-37.79,0.13,-0.15,-1.63,0.0907
0.19,0.16,-1.23,3.8,-0.17,-1.01,-0.59,-51.27,-38.67,0.13,-0.15,-1.65,0.0911
0.2,0.16,-1.24,2.4,-2.32,-0.68,0.0,-51.27,-37.79,0.13,-0.16,-1.64,0.0915
0.19,0.16,-1.24,3.6,1.25,-0.85,0.29,-51.56,-37.5,0.13,-0.15,-1.63,0.0919
0.18,0.16,-1.24,1.89,-0.92,-0.34,0.59,-50.98,-38.38,0.13,-0.14,-1.63,0.0922
0.19,0.16,-1.23,1.74,-3.35,-0.56,0.0,-51.56,-37.79,0.13,-0.15,-1.64,0.0926
0.19,0.16,-1.25,3.62,0.38,-0.77,0.88,-51.27,-38.38,0.13,-0.15,-1.62,0.093
0.18,0.16,-1.24,2.69,-0.47,-0.58,0.29,-51.27,-38.38,0.13,-0.15,-1.63,0.0933
0.2,0.16,-1.24,2.87,-1.27,-0.4,0.29,-51.56,-37.5,0.13,-0.16,-1.63,0.0937
0.18,0.16,-1.25,4.38,3.16,-0.57,0.29,-51.27,-38.67,0.13,-0.14,-1.64,0.0941
0.18,0.17,-1.24,2.33,-0.27,-1.28,0.0,-51.27,-37.79,0.13,-0.15,-1.64,0.0944
0.2,0.16,-1.23,0.4,-4.59,-1.23,0.0,-51.27,-37.79,0.13,-0.16,-1.64,0.0948
0.19,0.16,-1.25,3.11,0.75,-0.56,0.88,-51.27,-38.67,0.12,-0.15,-1.62,0.0952
0.18,0.16,-1.25,4.21,2.25,-0.72,-0.29,-51.27,-38.09,0.13,-0.14,-1.65,0.0956
0.2,0.16,-1.24,2.47,-2.37,-0.82,0.88,-51.27,-38.09,0.13,-0.16,-1.62,0.0959
0.19,0.16,-1.24,3.04,0.61,-0.69,-0.29,-50.98,-37.79,0.13,-0.15,-1.64,0.0963
0.18,0.16,-1.25,2.69,0.26,-0.59,0.0,-51.27,-38.09,0.13,-0.14,-1.64,0.0967
0.19,0.16,-1.24,1.74,-3.11,-0.42,0.59,-51.56,-38.09,0.13,-0.15,-1.63,0.0971
0.19,0.16,-1.24,3.41,0.86,-0.44,-0.29,-51.27,-38.38,0.13,-0.15,-1.65,0.0974
0.18,0.16,-1.25,3.06,-0.45,-0.43,0.0,-51.56,-37.5,0.13,-0.14,-1.64,0.0979
0.2,0.16,-1.24,1.96,-2.79,-0.64,0.59,-51.27,-37.79,0.13,-0.16,-1.63,0.0983
0.19,0.16,-1.24,3.01,0.9,-0.51,0.59,-51.56,-38.09,0.13,-0.15,-1.63,0.0987
0.18,0.16,-1.24,3.11,-0.12,-0.48,0.59,-51.56,-38.09,0.13,-0.14,-1.63,0.099
0.19,0.16,-1.24,2.49,-2.0,-0.4,0.29,-51.56,-38.38,0.13,-0.15,-1.63,0.0994
0.19,0.16,-1.24,3.46,0.56,-0.61,0.59,-51.27,-38.09,0.13,-0.15,-1.63,0.0998
0.18,0.16,-1.24,2.82,-0.45,-0.54,0.59,-50.68,-37.5,0.13,-0.15,-1.63,0.1001
0.19,0.16,-1.25,2.37,-1.15,-0.67,-0.29,-50.98,-37.5,0.13,-0.15,-1.64,0.1005
0.18,0.16,-1.24,2.71,-0.14,-0.63,0.59,-51.56,-38.67,0.12,-0.15,-1.63,0.1009
0.19,0.16,-1.24,2.74,-0.31,-0.61,0.29,-51.86,-37.79,0.13,-0.15,-1.63,0.1013
0.19,0.16,-1.24,3.38,-0.03,-0.72,0.59,-50.98,-37.79,0.12,-0.15,-1.63,0.1016
0.19,0.16,-1.24,2.62,-0.4,-0.42,0.59,-51.86,-38.38,0.13,-0.15,-1.63,0.102
0.19,0.16,-1.24,2.28,-2.4,-0.6,0.0,-51.86,-37.21,0.13,-0.15,-1.63,0.1024
0.18,0.16,-1.24,2.65,-1.52,-0.64,0.59,-51.86,-38.38,0.13,-0.15,-1.63,0.1028
0.18,0.17,-1.24,2.71,-0.79,-0.52,0.29,-51.27,-37.79,0.13,-0.15,-1.63,0.1031
0.19,0.16,-1.24,2.6,-1.28,-0.47,-0.29,-51.27,-37.79,0.12,-0.15,-1.64,0.1035
0.19,0.16,-1.25,3.04,0.27,-0.44,-0.29,-51.27,-37.5,0.13,-0.15,-1.64,0.1039
0.19,0.16,-1.25,2.72,-0.1,-0.56,0.59,-51.27,-38.09,0.12,-0.15,-1.63,0.1042
0.19,0.16,-1.24,2.79,-1.01,-0.5,-0.29,-50.98,-38.96,0.13,-0.15,-1.64,0.1046
0.18,0.16,-1.24,3.23,0.29,-0.53,0.29,-51.27,-37.5,0.13,-0.14,-1.63,0.105
0.18,0.16,-1.25,2.69,-0.69,-0.53,0.59,-51.27,-37.79,0.13,-0.14,-1.63,0.1053
0.19,0.16,-1.24,2.66,-1.76,-0.39,0.29,-50.68,-38.67,0.13,-0.15,-1.63,0.1057
0.19,0.16,-1.24,3.04,0.59,-0.52,-0.29,-51.56,-37.79,0.13,-0.15,-1.64,0.1061
0.18,0.16,-1.24,2.94,0.29,-0.82,-0.29,-51.86,-37.79,0.12,-0.15,-1.64,0.1065
0.19,0.16,-1.24,2.88,-0.58,-0.23,0.29,-51.56,-38.67,0.12,-0.15,-1.63,0.1069
0.18,0.17,-1.24,3.48,0.61,-0.63,-0.29,-51.27,-38.09,0.13,-0.14,-1.65,0.1072
0.19,0.16,-1.24,2.03,-2.21,-0.77,0.0,-50.98,-37.5,0.13,-0.15,-1.64,0.1076
0.19,0.16,-1.24,2.4,-2.09,-0.56,0.29,-50.98,-37.21,0.12,-0.15,-1.63,0.108
0.18,0.17,-1.25,3.43,0.56,-0.41,0.29,-50.68,-38.09,0.13,-0.14,-1.64,0.1084
0.19,0.15,-1.24,2.23,-2.18,-0.61,1.46,-50.98,-38.09,0.12,-0.15,-1.61,0.1087
0.19,0.16,-1.24,2.89,-1.28,-0.27,-0.59,-51.56,-37.5,0.13,-0.15,-1.65,0.1091
0.19,0.16,-1.25,3.4,1.47,-0.5,0.29,-50.98,-38.09,0.13,-0.15,-1.63,0.1095
0.19,0.17,-1.24,2.71,-1.73,-0.58,0.59,-50.68,-37.5,0.13,-0.15,-1.63,0.1098
0.19,0.16,-1.24,2.98,-0.76,-0.69,0.0,-50.98,-38.38,0.13,-0.15,-1.64,0.1102
0.18,0.16,-1.25,2.91,0.63,-0.5,0.59,-51.86,-37.5,0.13,-0.15,-1.63,0.1106
0.19,0.16,-1.24,2.78,-1.6,-0.89,0.29,-50.68,-37.79,0.13,-0.15,-1.63,0.1109
0.19,0.15,-1.25,2.62,-0.84,-0.63,0.29,-51.27,-37.79,0.12,-0.15,-1.63,0.1113
0.18,0.16,-1.24,3.97,2.59,-0.73,-0.59,-51.86,-38.09,0.13,-0.14,-1.65,0.1117
0.19,0.17,-1.24,2.47,-1.5,-0.34,0.59,-51.86,-37.79,0.13,-0.15,-1.63,0.1121
0.2,0.15,-1.24,1.48,-3.16,-0.56,0.88,-51.56,-37.79,0.12,-0.16,-1.62,0.1125
0.18,0.16,-1.25,4.08,2.16,-0.63,0.88,-51.27,-38.09,0.12,-0.15,-1.62,0.1128
0.18,0.16,-1.25,3.56,1.11,-0.66,0.88,-51.27,-37.79,0.13,-0.14,-1.62,0.1132
0.19,0.15,-1.24,2.64,-1.4,-0.56,0.59,-51.27,-38.38,0.12,-0.15,-1.63,0.1136
0.18,0.17,-1.24,3.36,0.43,-0.46,0.88,-51.86,-38.38,0.13,-0.15,-1.63,0.1139
0.18,0.16,-1.24,2.91,-0.18,-0.7,0.29,-50.98,-39.26,0.13,-0.15,-1.64,0.1143
0.19,0.15,-1.24,2.42,-1.85,-0.5,0.59,-51.56,-38.09,0.12,-0.15,-1.62,0.1147
0.18,0.16,-1.24,3.12,0.56,-0.55,0.29,-50.68,-38.38,0.13,-0.15,-1.63,0.115
0.18,0.16,-1.24,3.39,0.66,-0.76,0.29,-50.98,-38.09,0.12,-0.15,-1.63,0.1154
0.19,0.15,-1.24,2.75,-0.22,-0.61,0.59,-51.56,-38.38,0.12,-0.15,-1.63,0.1158
0.19,0.16,-1.24,3.14,0.05,-0.6,-0.29,-52.15,-38.67,0.13,-0.15,-1.64,0.1161
0.18,0.16,-1.24,3.08,-0.18,-0.69,0.59,-51.27,-38.38,0.13,-0.15,-1.63,0.1165
0.19,0.16,-1.24,2.85,-1.61,-0.53,0.88,-51.27,-38.09,0.13,-0.15,-1.62,0.1169
0.19,0.16,-1.25,2.64,-1.46,-0.55,0.0,-51.27,-37.79,0.13,-0.15,-1.64,0.1172
0.19,0.16,-1.24,2.62,-1.3,-0.57,0.29,-50.98,-38.38,0.13,-0.15,-1.63,0.1176
0.19,0.16,-1.25,2.49,-0.87,-0.6,0.59,-51.27,-38.09,0.13,-0.15,-1.63,0.118
0.19,0.15,-1.24,2.61,-0.04,-0.5,0.59,-51.86,-38.38,0.12,-0.15,-1.62,0.1184
0.18,0.16,-1.24,3.38,0.21,-0.89,0.29,-51.56,-37.79,0.13,-0.14,-1.63,0.1187
0.19,0.16,-1.24,3.04,-0.92,-0.73,0.29,-50.68,-38.38,0.13,-0.15,-1.64,0.1191
0.18,0.14,-1.25,2.0,-2.19,-0.29,0.59,-49.8,-37.21,0.11,-0.15,-1.62,0.1195
0.18,0.16,-1.24,4.12,0.74,-0.19,0.88,-51.56,-37.79,0.13,-0.14,-1.62,0.1199
0.18,0.17,-1.24,3.5,1.53,-1.82,0.88,-50.98,-38.38,0.13,-0.15,-1.63,0.1202
0.18,0.15,-1.24,2.42,-1.01,-0.58,0.29,-51.56,-37.79,0.12,-0.14,-1.63,0.1206
0.18,0.16,-1.24,3.21,-0.1,-0.57,0.59,-51.86,-38.09,0.13,-0.14,-1.63,0.121
0.19,0.16,-1.24,3.24,0.52,-0.61,0.0,-51.86,-38.09,0.13,-0.15,-1.64,0.1213
0.18,0.16,-1.24,2.69,0.29,-0.59,0.0,-51.27,-38.09,0.12,-0.15,-1.64,0.1217
0.19,0.16,-1.24,2.97,-0.59,-0.67,0.29,-52.15,-37.79,0.13,-0.15,-1.63,0.1221
0.18,0.16,-1.24,2.57,-0.64,-0.72,0.29,-50.98,-37.79,0.13,-0.15,-1.63,0.1225
0.18,0.16,-1.24,2.98,-0.98,-0.79,1.17,-51.86,-38.09,0.13,-0.15,-1.62,0.1228
0.19,0.15,-1.24,3.55,-0.61,-1.68,0.59,-50.98,-38.09,0.12,-0.15,-1.62,0.1232
0.19,0.17,-1.23,3.88,0.02,-0.14,0.59,-51.56,-38.38,0.14,-0.15,-1.63,0.1236
0.18,0.16,-1.24,3.15,-0.2,-0.68,0.59,-50.98,-37.79,0.13,-0.14,-1.63,0.124
0.18,0.16,-1.24,2.79,-0.82,-0.62,0.88,-50.98,-38.09,0.13,-0.14,-1.62,0.1243
0.19,0.16,-1.24,2.99,-1.2,-0.6,0.59,-50.98,-38.38,0.13,-0.15,-1.63,0.1247
0.18,0.16,-1.24,3.17,0.4,-0.92,0.88,-51.86,-37.79,0.13,-0.14,-1.62,0.1251
0.18,0.16,-1.24,3.14,0.38,-0.5,0.0,-51.27,-38.38,0.13,-0.14,-1.64,0.1254
0.19,0.16,-1.24,3.23,-0.42,-0.87,0.0,-51.86,-38.38,0.13,-0.15,-1.64,0.1258
0.18,0.16,-1.24,3.11,0.34,-0.76,0.29,-51.27,-38.09,0.13,-0.14,-1.63,0.1262
0.18,0.16,-1.24,2.9,-0.42,-0.65,1.17,-51.27,-38.67,0.13,-0.15,-1.62,0.1265
0.19,0.16,-1.24,2.83,-0.98,-0.6,0.29,-51.56,-38.09,0.12,-0.15,-1.63,0.1269
0.19,0.16,-1.24,3.14,0.01,-0.57,0.29,-50.98,-38.38,0.12,-0.15,-1.63,0.1273
0.18,0.16,-1.24,3.08,-0.69,-0.98,0.0,-51.86,-38.09,0.13,-0.15,-1.64,0.1277
0.18,0.16,-1.24,2.88,-0.56,-0.52,0.59,-51.56,-38.09,0.13,-0.15,-1.63,0.128
0.18,0.16,-1.24,2.8,-0.5,-0.91,0.59,-51.27,-37.79,0.13,-0.14,-1.63,0.1284
0.19,0.16,-1.23,9.28,-2.94,4.74,-0.29,-51.86,-38.09,0.13,-0.15,-1.64,0.1288
0.15,0.19,-1.32,1.6,1.7,3.8,0.88,-52.15,-38.38,0.14,-0.11,-1.64,0.1292
0.18,0.14,-1.24,0.24,-2.41,-0.83,0.29,-51.56,-37.5,0.11,-0.15,-1.63,0.1295
0.19,0.16,-1.24,2.54,-1.86,-1.21,0.0,-50.68,-37.21,0.13,-0.15,-1.64,0.1299
0.18,0.15,-1.25,5.01,2.69,0.63,0.59,-51.27,-38.09,0.12,-0.15,-1.63,0.1303
0.18,0.16,-1.25,4.05,0.91,-0.09,0.88,-50.68,-38.09,0.12,-0.14,-1.62,0.1306
0.19,0.15,-1.25,0.76,-3.63,-2.33,0.0,-50.68,-37.79,0.12,-0.15,-1.63,0.131
0.19,0.16,-1.24,3.66,0.43,-0.36,0.88,-51.27,-38.67,0.12,-0.15,-1.62,0.1314
0.18,0.16,-1.24,3.35,-0.02,0.11,0.29,-51.56,-38.38,0.13,-0.15,-1.63,0.1317
0.19,0.15,-1.24,2.72,-0.66,-0.65,0.0,-51.27,-38.38,0.12,-0.15,-1.64,0.1321
0.18,0.16,-1.25,3.14,-0.06,-0.52,0.59,-50.68,-37.21,0.12,-0.14,-1.63,0.1325
0.19,0.15,-1.23,2.26,-1.99,-1.31,0.59,-51.27,-38.38,0.12,-0.15,-1.62,0.1329
0.18,0.16,-1.24,3.49,0.65,0.14,1.46,-51.56,-38.09,0.13,-0.15,-1.61,0.1332
0.18,0.16,-1.25,2.48,-0.51,-0.85,0.88,-51.27,-37.79,0.12,-0.14,-1.62,0.1336
0.19,0.15,-1.25,2.56,-1.03,-0.75,0.59,-50.39,-38.09,0.12,-0.15,-1.63,0.1339
0.18,0.16,-1.24,2.56,-0.76,-0.4,0.0,-50.98,-37.79,0.12,-0.15,-1.64,0.1343
0.19,0.15,-1.24,2.71,-0.81,-0.77,0.59,-50.98,-38.38,0.12,-0.15,-1.62,0.1347
0.18,0.15,-1.25,3.66,0.3,-0.3,0.0,-51.56,-37.79,0.12,-0.15,-1.63,0.135
0.18,0.15,-1.24,3.35,0.11,-0.04,0.59,-50.98,-37.5,0.12,-0.14,-1.63,0.1354
0.18,0.16,-1.24,2.53,-1.7,-0.78,0.29,-50.98,-38.67,0.12,-0.14,-1.63,0.1358
0.18,0.15,-1.24,3.12,-0.84,-0.66,0.59,-51.27,-38.09,0.12,-0.15,-1.63,0.1361
0.18,0.15,-1.25,2.91,-0.11,-0.44,0.88,-51.27,-37.79,0.12,-0.15,-1.62,0.1365
0.19,0.15,-1.24,2.56,-1.21,-0.55,0.88,-50.98,-38.38,0.12,-0.15,-1.62,0.1369
0.19,0.15,-1.24,2.67,-0.65,-0.6,0.0,-51.27,-38.09,0.12,-0.15,-1.64,0.1372
0.18,0.15,-1.25,3.35,0.34,-0.24,0.88,-51.27,-38.38,0.12,-0.15,-1.62,0.1376
0.18,0.15,-1.24,2.25,-1.38,-0.75,0.88,-51.86,-38.67,0.12,-0.15,-1.62,0.138
0.19,0.16,-1.25,2.74,-0.78,-0.53,0.88,-51.27,-37.79,0.13,-0.15,-1.62,0.1383
0.18,0.16,-1.25,3.17,0.07,-0.5,0.29,-51.86,-38.67,0.12,-0.15,-1.63,0.1387
0.19,0.15,-1.24,2.4,-1.19,-0.66,1.46,-50.98,-37.5,0.12,-0.15,-1.61,0.1391
0.18,0.15,-1.24,2.75,-0.47,-0.54,0.59,-50.68,-37.5,0.12,-0.15,-1.63,0.1395
0.18,0.16,-1.24,2.78,-0.41,-0.46,0.59,-51.27,-37.5,0.12,-0.14,-1.63,0.1398
0.19,0.16,-1.24,2.77,-0.76,-0.47,0.0,-51.56,-38.67,0.12,-0.15,-1.64,0.1402
0.18,0.15,-1.24,3.23,0.06,0.11,0.59,-51.56,-38.09,0.12,-0.15,-1.63,0.1406
0.18,0.16,-1.24,2.53,-1.24,-0.77,1.17,-50.98,-38.38,0.12,-0.14,-1.62,0.1409
0.19,0.16,-1.24,2.67,-1.2,-0.95,0.29,-51.56,-37.79,0.12,-0.15,-1.63,0.1413
0.18,0.16,-1.24,3.23,0.31,-0.34,0.29,-51.27,-38.09,0.12,-0.15,-1.63,0.1417
0.18,0.15,-1.24,2.73,-0.58,-0.64,0.29,-51.86,-37.79,0.12,-0.14,-1.63,0.1421
0.19,0.15,-1.24,2.49,-1.11,-0.62,0.59,-51.56,-37.5,0.12,-0.15,-1.62,0.1424
0.18,0.15,-1.24,2.9,-0.42,-0.55,0.88,-51.86,-38.09,0.12,-0.14,-1.62,0.1428
0.19,0.15,-1.25,2.86,-1.31,-0.69,0.88,-50.68,-37.79,0.12,-0.15,-1.62,0.1432
0.19,0.15,-1.24,3.22,-0.15,-0.6,0.88,-51.27,-38.09,0.12,-0.15,-1.62,0.1436
0.18,0.16,-1.25,3.05,0.43,-0.27,0.29,-51.56,-38.38,0.12,-0.15,-1.63,0.1439
0.18,0.16,-1.24,2.04,-1.53,-1.38,0.0,-51.56,-37.79,0.12,-0.15,-1.64,0.1443
0.18,0.15,-1.24,2.5,-1.48,-0.51,1.76,-51.56,-37.5,0.12,-0.15,-1.6,0.1447
0.18,0.15,-1.24,2.6,-0.48,-0.63,0.29,-51.56,-37.79,0.12,-0.14,-1.63,0.1451
0.19,0.15,-1.24,2.97,-0.84,-0.55,0.0,-50.98,-38.09,0.12,-0.15,-1.64,0.1454
0.19,0.15,-1.24,3.33,0.43,-0.58,1.46,-50.98,-37.21,0.12,-0.15,-1.61,0.1458
0.18,0.16,-1.24,2.83,-0.4,-0.66,0.59,-51.56,-37.21,0.13,-0.14,-1.63,0.1462
0.18,0.15,-1.24,2.4,-1.57,-0.99,0.59,-51.56,-38.38,0.12,-0.15,-1.63,0.1465
0.18,0.16,-1.24,2.65,-0.6,-0.4,0.59,-50.98,-37.79,0.12,-0.15,-1.63,0.1469
0.19,0.15,-1.25,2.47,0.32,-0.64,0.29,-50.98,-37.79,0.12,-0.15,-1.63,0.1473
0.19,0.16,-1.24,3.15,-1.38,-0.68,0.88,-50.98,-38.38,0.12,-0.15,-1.62,0.1476
0.18,0.15,-1.24,3.01,-0.2,-0.72,0.29,-52.44,-38.38,0.12,-0.15,-1.63,0.148
0.18,0.16,-1.24,3.13,-0.66,-0.39,0.0,-51.56,-37.79,0.12,-0.15,-1.64,0.1484
0.18,0.15,-1.25,2.21,-1.95,-1.1,0.88,-50.98,-37.79,0.12,-0.14,-1.62,0.1487
0.19,0.15,-1.24,2.2,-1.49,-0.45,0.88,-52.15,-38.09,0.12,-0.15,-1.62,0.1491
0.19,0.15,-1.25,2.91,0.26,-0.56,0.0,-51.86,-38.09,0.12,-0.15,-1.63,0.1495
0.18,0.15,-1.23,2.5,-1.4,-0.34,0.29,-50.68,-38.38,0.12,-0.14,-1.63,0.1499
0.18,0.16,-1.24,2.91,-1.21,-0.95,0.88,-50.98,-37.79,0.12,-0.15,-1.62,0.1502
0.18,0.16,-1.24,2.2,-1.52,-0.52,0.88,-51.56,-37.79,0.12,-0.14,-1.62,0.1506
0.18,0.16,-1.24,2.49,-2.75,-0.82,0.29,-52.44,-37.5,0.13,-0.14,-1.63,0.151
0.18,0.16,-1.23,4.14,-2.07,-0.05,0.29,-50.98,-37.79,0.13,-0.14,-1.64,0.1513
0.18,0.16,-1.25,2.4,-1.35,-2.16,0.0,-51.27,-38.09,0.13,-0.14,-1.64,0.1517
0.18,0.16,-1.25,1.92,-0.8,-1.46,0.59,-51.27,-38.38,0.12,-0.14,-1.63,0.1521
0.18,0.15,-1.25,4.07,2.19,0.43,1.17,-50.68,-38.38,0.12,-0.14,-1.62,0.1524
0.18,0.15,-1.25,4.18,1.33,0.43,0.59,-51.27,-38.09,0.12,-0.15,-1.62,0.1528
0.18,0.15,-1.24,3.47,-0.03,-0.34,0.88,-50.98,-37.79,0.12,-0.15,-1.62,0.1532
0.18,0.15,-1.24,4.49,1.1,0.0,0.88,-51.56,-37.5,0.12,-0.15,-1.62,0.1535
0.18,0.16,-1.24,3.96,-0.14,-0.28,0.88,-50.98,-37.21,0.12,-0.15,-1.62,0.1539
0.19,0.15,-1.24,2.48,-2.14,-0.94,1.46,-51.27,-37.79,0.12,-0.15,-1.61,0.1543
0.18,0.15,-1.24,2.24,-1.36,-1.05,0.29,-51.56,-38.67,0.12,-0.14,-1.63,0.1546
0.18,0.15,-1.24,1.93,-1.42,-0.84,1.17,-51.56,-38.67,0.12,-0.14,-1.62,0.155
0.18,0.16,-1.24,2.33,-1.33,-0.68,0.0,-51.56,-38.09,0.12,-0.14,-1.64,0.1554
0.17,0.16,-1.24,2.66,0.2,-0.59,0.29,-51.27,-38.09,0.13,-0.14,-1.63,0.1557
0.19,0.15,-1.25,2.07,-1.21,-0.61,0.59,-51.56,-37.5,0.12,-0.15,-1.62,0.1561
0.18,0.15,-1.24,2.74,-1.08,-0.89,0.59,-50.39,-37.79,0.12,-0.15,-1.63,0.1565
0.18,0.15,-1.25,2.52,-1.05,-0.19,0.0,-51.27,-37.79,0.12,-0.14,-1.64,0.1569
0.18,0.15,-1.24,2.78,-0.33,-0.49,2.05,-51.56,-38.09,0.12,-0.15,-1.6,0.1573
0.19,0.15,-1.25,3.62,1.37,-0.3,0.59,-51.86,-38.09,0.12,-0.15,-1.62,0.1576
0.18,0.15,-1.24,3.01,-0.05,-0.87,0.88,-50.68,-37.5,0.12,-0.15,-1.62,0.158
0.19,0.15,-1.24,3.36,-0.27,-0.57,0.59,-51.27,-37.79,0.12,-0.15,-1.63,0.1584
0.18,0.15,-1.24,3.91,0.68,0.06,0.59,-50.68,-37.5,0.12,-0.14,-1.63,0.1588
0.18,0.15,-1.24,1.29,-2.81,-1.66,1.17,-51.86,-37.79,0.12,-0.14,-1.61,0.1591
0.19,0.16,-1.24,2.34,-2.22,-0.59,0.88,-51.56,-37.79,0.12,-0.15,-1.62,0.1595
0.18,0.16,-1.24,3.76,0.69,0.34,1.17,-50.39,-37.5,0.13,-0.14,-1.62,0.1599
0.18,0.15,-1.24,1.6,-1.82,-1.34,0.88,-51.56,-37.79,0.12,-0.14,-1.62,0.1602
0.19,0.16,-1.25,2.64,-1.28,-0.69,0.59,-51.27,-38.09,0.12,-0.15,-1.63,0.1606
0.18,0.16,-1.24,3.99,1.55,-0.02,0.88,-50.98,-36.62,0.12,-0.14,-1.62,0.161
0.18,0.15,-1.24,2.1,-1.43,-0.52,0.0,-51.56,-37.79,0.12,-0.14,-1.63,0.1614
0.18,0.15,-1.24,2.88,-1.4,-0.95,1.17,-50.98,-38.09,0.12,-0.15,-1.61,0.1617
0.18,0.15,-1.25,4.48,1.68,0.28,0.29,-50.68,-38.38,0.12,-0.14,-1.63,0.1621
0.18,0.15,-1.25,2.85,-1.14,-0.61,1.46,-50.98,-37.79,0.12,-0.15,-1.61,0.1625
0.19,0.15,-1.24,2.17,-2.02,-0.99,0.59,-50.98,-38.38,0.12,-0.15,-1.62,0.1628
0.18,0.16,-1.24,3.09,0.14,-0.31,0.59,-50.68,-38.09,0.12,-0.14,-1.63,0.1632
0.18,0.15,-1.24,2.69,-0.76,-0.62,0.88,-52.15,-38.09,0.12,-0.15,-1.62,0.1636
0.18,0.15,-1.24,2.31,-1.3,-0.87,1.17,-51.56,-37.5,0.12,-0.15,-1.61,0.164
0.18,0.15,-1.24,3.11,-0.69,-0.78,0.59,-50.98,-38.67,0.12,-0.14,-1.63,0.1643
0.18,0.16,-1.24,2.66,-0.81,-0.66,0.29,-50.68,-37.5,0.13,-0.15,-1.63,0.1647
0.18,0.15,-1.24,3.07,-0.6,-0.45,1.46,-51.86,-38.09,0.12,-0.14,-1.61,0.1651
0.18,0.16,-1.24,3.3,0.18,-0.36,0.88,-51.27,-38.67,0.12,-0.15,-1.62,0.1655
0.18,0.15,-1.24,2.72,-1.21,-0.92,1.17,-50.98,-37.79,0.12,-0.14,-1.62,0.1658
0.18,0.15,-1.25,2.24,-1.19,-0.81,0.88,-50.68,-37.5,0.12,-0.14,-1.62,0.1662
0.18,0.16,-1.24,4.01,0.89,0.04,0.29,-50.68,-38.09,0.12,-0.14,-1.63,0.1666
0.18,0.15,-1.23,3.03,-0.98,-0.49,0.88,-51.27,-37.21,0.12,-0.15,-1.62,0.1669
0.18,0.15,-1.24,2.45,-1.25,-1.01,0.88,-50.39,-38.09,0.12,-0.15,-1.62,0.1673
0.18,0.16,-1.25,3.56,0.37,-0.02,1.17,-51.27,-37.5,0.12,-0.14,-1.62,0.1677
0.19,0.15,-1.25,2.83,-1.68,-0.87,0.59,-50.98,-37.21,0.12,-0.15,-1.62,0.1681
0.19,0.15,-1.24,2.86,-0.6,-0.48,1.17,-50.68,-37.79,0.12,-0.15,-1.61,0.1685
0.18,0.15,-1.24,3.24,0.15,-0.27,0.59,-51.27,-37.79,0.12,-0.14,-1.63,0.1688
0.18,0.15,-1.24,2.51,-1.61,-0.56,0.29,-50.98,-37.79,0.12,-0.15,-1.63,0.1692
0.18,0.15,-1.24,2.96,-0.67,-0.66,-0.29,-50.68,-37.79,0.12,-0.14,-1.64,0.1696
0.18,0.15,-1.25,3.06,0.39,-0.38,0.0,-50.98,-38.09,0.12,-0.14,-1.64,0.1699
0.18,0.15,-1.24,3.29,-0.89,-0.63,0.29,-50.98,-37.79,0.12,-0.14,-1.63,0.1703
0.18,0.15,-1.24,2.66,-1.18,-0.47,0.88,-51.27,-37.21,0.12,-0.15,-1.62,0.1707
0.18,0.15,-1.24,2.27,-2.14,-0.96,0.29,-51.56,-37.21,0.12,-0.14,-1.63,0.171
0.18,0.15,-1.24,2.81,-1.08,-0.77,0.59,-50.98,-37.79,0.12,-0.14,-1.63,0.1715
0.18,0.16,-1.25,3.7,-0.05,-0.46,1.17,-50.68,-38.09,0.12,-0.15,-1.62,0.1718
0.18,0.16,-1.24,2.3,-0.63,-0.51,0.29,-50.98,-38.38,0.12,-0.14,-1.63,0.1722
0.19,0.15,-1.24,1.39,-3.04,-2.16,1.46,-51.27,-38.38,0.12,-0.15,-1.61,0.1726
0.18,0.15,-1.24,4.14,0.99,0.66,0.88,-51.27,-37.5,0.12,-0.14,-1.62,0.173
0.17,0.16,-1.24,2.3,-0.4,-1.11,0.88,-50.98,-38.09,0.13,-0.14,-1.62,0.1733
0.19,0.15,-1.24,1.34,-3.6,-1.38,0.0,-50.98,-38.38,0.12,-0.15,-1.63,0.1737
0.17,0.17,-1.24,5.65,1.63,0.35,0.59,-51.27,-38.09,0.13,-0.14,-1.63,0.1741
0.18,0.17,-1.24,4.04,1.82,-0.37,0.29,-51.56,-37.21,0.13,-0.14,-1.63,0.1745
0.18,0.15,-1.25,3.27,1.85,-0.02,0.59,-51.56,-38.09,0.11,-0.15,-1.62,0.1748
0.18,0.15,-1.25,3.51,-0.58,-0.5,1.17,-50.39,-37.21,0.12,-0.14,-1.61,0.1752
0.19,0.16,-1.24,3.81,-1.14,-0.26,0.29,-50.68,-37.79,0.12,-0.15,-1.63,0.1756
0.18,0.15,-1.24,2.88,-0.25,-0.79,0.88,-50.39,-38.09,0.12,-0.14,-1.62,0.176
0.18,0.15,-1.23,3.09,-1.88,-0.75,0.88,-50.98,-37.79,0.12,-0.15,-1.62,0.1763
0.19,0.16,-1.23,3.75,-1.06,0.29,0.88,-50.68,-37.79,0.13,-0.15,-1.62,0.1767
0.18,0.16,-1.24,2.04,-1.48,-0.63,0.59,-50.68,-37.5,0.12,-0.14,-1.63,0.1771
0.18,0.15,-1.24,0.37,-4.17,-2.15,0.88,-51.27,-37.79,0.12,-0.14,-1.62,0.1775
0.18,0.16,-1.25,2.53,-0.58,-0.82,1.46,-50.68,-37.5,0.12,-0.15,-1.61,0.1778
0.17,0.16,-1.25,3.0,0.85,-0.24,1.76,-50.68,-37.79,0.13,-0.14,-1.61,0.1782
0.18,0.15,-1.24,1.43,-1.57,-0.09,0.29,-51.27,-38.67,0.12,-0.15,-1.63,0.1786
0.18,0.15,-1.25,2.53,-1.05,-1.01,0.29,-50.98,-37.79,0.12,-0.14,-1.63,0.179
0.18,0.15,-1.24,4.29,1.05,0.92,0.29,-50.39,-37.21,0.12,-0.15,-1.63,0.1793
0.18,0.15,-1.24,3.78,-0.14,-0.48,1.17,-50.98,-38.96,0.12,-0.14,-1.62,0.1797
0.18,0.16,-1.23,2.5,-1.22,-0.69,0.59,-50.98,-38.09,0.12,-0.15,-1.63,0.1801
0.18,0.15,-1.24,3.02,-0.09,-0.36,0.88,-50.98,-38.09,0.12,-0.14,-1.62,0.1804
0.18,0.16,-1.24,3.36,-0.02,-0.41,1.17,-50.98,-37.79,0.12,-0.14,-1.62,0.1808
0.19,0.15,-1.24,2.07,-1.85,-1.3,0.88,-50.98,-37.79,0.12,-0.15,-1.62,0.1812
0.18,0.15,-1.24,3.33,0.27,-0.37,0.29,-51.56,-38.96,0.12,-0.14,-1.63,0.1815
0.18,0.16,-1.24,3.19,-0.24,-0.5,0.88,-50.39,-38.38,0.12,-0.14,-1.62,0.1819
0.18,0.15,-1.24,2.06,-1.87,-1.16,0.59,-50.98,-37.79,0.12,-0.15,-1.62,0.1823
0.18,0.15,-1.25,2.97,-0.15,-0.22,0.0,-50.98,-38.09,0.12,-0.15,-1.64,0.1826
0.18,0.16,-1.24,3.11,-0.93,-0.51,0.59,-50.98,-38.09,0.12,-0.14,-1.63,0.183
0.19,0.15,-1.26,1.67,-3.18,-1.48,0.88,-50.68,-38.09,0.12,-0.15,-1.62,0.1834
0.17,0.14,-1.26,2.72,1.78,-0.11,1.46,-51.56,-38.38,0.11,-0.13,-1.61,0.1837
0.18,0.15,-1.24,2.44,-1.01,-0.68,0.29,-50.68,-37.79,0.12,-0.14,-1.63,0.1841
0.19,0.16,-1.24,2.22,-2.11,-1.55,0.88,-51.27,-37.5,0.12,-0.15,-1.62,0.1845
0.18,0.15,-1.25,3.14,1.4,-0.24,0.59,-50.68,-37.79,0.12,-0.14,-1.63,0.1849
0.18,0.16,-1.24,2.76,-1.82,-0.63,0.88,-50.98,-37.79,0.13,-0.15,-1.62,0.1852
0.19,0.16,-1.24,3.01,-0.53,-0.87,0.59,-51.86,-38.09,0.12,-0.15,-1.63,0.1856
0.18,0.15,-1.25,3.51,1.27,-0.49,0.0,-51.27,-38.09,0.12,-0.14,-1.64,0.186
0.18,0.15,-1.24,3.01,-1.19,-0.65,0.88,-50.98,-38.38,0.12,-0.15,-1.62,0.1863
0.19,0.15,-1.24,2.57,-0.04,0.25,0.59,-51.56,-38.38,0.12,-0.15,-1.62,0.1867
0.17,0.15,-1.24,3.23,0.46,0.25,0.59,-51.56,-37.79,0.12,-0.14,-1.62,0.1871
0.18,0.15,-1.23,2.98,-1.46,-0.74,0.29,-51.86,-37.21,0.12,-0.15,-1.63,0.1874
0.18,0.15,-1.24,2.81,-0.91,-0.41,0.59,-51.56,-38.38,0.12,-0.14,-1.63,0.1878
0.18,0.15,-1.24,2.59,-0.87,-0.69,0.0,-51.27,-37.5,0.12,-0.14,-1.63,0.1882
0.18,0.15,-1.24,3.07,-0.16,-0.43,0.59,-51.27,-38.38,0.12,-0.14,-1.63,0.1886
0.18,0.16,-1.24,3.52,-0.49,-0.44,0.59,-51.56,-37.5,0.12,-0.14,-1.63,0.1889
0.18,0.16,-1.24,1.97,-2.08,-0.37,1.17,-50.39,-37.5,0.12,-0.14,-1.62,0.1893
0.19,0.15,-1.24,2.34,-0.57,-1.03,0.88,-52.15,-38.38,0.12,-0.15,-1.62,0.1897
0.18,0.16,-1.23,3.61,-0.89,-0.72,0.59,-51.56,-37.5,0.13,-0.14,-1.63,0.1901
0.18,0.16,-1.24,4.55,0.02,-0.05,1.46,-51.27,-38.09,0.13,-0.15,-1.61,0.1904
0.18,0.16,-1.25,3.6,0.67,-0.34,0.59,-50.98,-37.79,0.12,-0.14,-1.63,0.1908
0.18,0.15,-1.24,2.13,-1.08,-1.42,0.29,-50.1,-37.21,0.12,-0.14,-1.63,0.1912
0.18,0.15,-1.24,2.75,-0.83,-0.25,0.59,-51.56,-38.09,0.12,-0.14,-1.62,0.1916
0.18,0.15,-1.24,3.41,-0.27,-0.23,1.46,-50.68,-37.5,0.12,-0.14,-1.61,0.1919
0.18,0.15,-1.24,4.39,0.98,0.78,0.88,-51.56,-38.38,0.12,-0.14,-1.62,0.1923
0.18,0.16,-1.24,3.23,-1.26,-0.58,1.17,-50.98,-37.79,0.13,-0.15,-1.62,0.1927
0.18,0.15,-1.24,1.44,-2.66,-1.73,0.0,-51.56,-37.79,0.12,-0.15,-1.63,0.193
0.18,0.15,-1.24,3.36,-0.2,0.24,0.59,-50.68,-38.38,0.12,-0.14,-1.63,0.1934
0.18,0.16,-1.24,3.28,0.05,-0.26,0.59,-50.98,-38.09,0.12,-0.14,-1.63,0.1938
0.18,0.15,-1.24,1.83,-1.33,-0.69,1.17,-50.68,-38.09,0.12,-0.14,-1.61,0.1942
0.18,0.15,-1.24,2.38,-1.37,-0.81,0.59,-50.98,-37.21,0.12,-0.14,-1.62,0.1945
0.18,0.15,-1.24,3.27,0.05,-0.17,0.59,-50.98,-37.5,0.12,-0.14,-1.63,0.1949
0.18,0.16,-1.24,3.41,-0.53,-0.92,0.0,-50.98,-38.09,0.13,-0.14,-1.64,0.1953
0.18,0.15,-1.24,2.69,-0.61,-0.54,1.17,-50.39,-38.09,0.12,-0.14,-1.62,0.1956
0.18,0.15,-1.25,3.64,0.84,0.1,0.88,-50.39,-37.5,0.12,-0.14,-1.62,0.196
0.18,0.15,-1.24,2.75,-1.14,-0.51,0.29,-51.27,-38.09,0.12,-0.14,-1.63,0.1964
0.18,0.15,-1.24,1.91,-1.31,-0.87,0.88,-50.68,-37.21,0.12,-0.15,-1.62,0.1967
0.18,0.15,-1.24,3.66,0.17,0.04,0.88,-51.27,-38.38,0.12,-0.14,-1.62,0.1971
0.18,0.16,-1.25,3.33,-0.48,-0.37,1.46,-51.86,-38.09,0.12,-0.14,-1.61,0.1975
0.18,0.15,-1.24,2.4,-1.25,-0.68,0.88,-51.27,-38.38,0.12,-0.14,-1.62,0.1979
0.18,0.16,-1.24,2.25,-1.35,-0.69,0.88,-51.56,-37.21,0.12,-0.15,-1.62,0.1982
0.18,0.15,-1.24,3.81,1.11,-0.14,0.88,-50.68,-37.79,0.12,-0.14,-1.62,0.1986
0.17,0.15,-1.24,2.7,-0.87,-0.53,0.29,-51.27,-37.79,0.12,-0.14,-1.63,0.199
0.19,0.15,-1.24,1.44,-3.15,-2.11,0.59,-51.56,-37.79,0.12,-0.15,-1.62,0.1993
0.18,0.15,-1.25,3.75,1.38,0.5,0.0,-50.98,-37.79,0.12,-0.15,-1.63,0.1997
0.18,0.16,-1.24,3.67,0.45,0.02,0.88,-50.68,-37.5,0.12,-0.14,-1.62,0.2001
0.19,0.16,-1.24,2.0,-2.75,-1.13,0.59,-50.98,-38.09,0.12,-0.15,-1.63,0.2005
0.18,0.15,-1.24,2.46,-1.59,-0.9,0.59,-50.68,-37.5,0.12,-0.15,-1.63,0.2008
0.18,0.16,-1.24,3.46,-0.33,-0.78,0.0,-50.68,-38.38,0.12,-0.15,-1.64,0.2012
0.18,0.16,-1.25,3.38,0.68,-0.21,0.29,-50.68,-38.38,0.12,-0.14,-1.63,0.2016
0.18,0.15,-1.24,2.01,-1.58,-0.68,0.88,-52.15,-38.67,0.12,-0.15,-1.62,0.2019
0.18,0.15,-1.24,2.4,-1.34,-0.99,0.59,-51.56,-38.09,0.12,-0.14,-1.62,0.2034
0.18,0.15,-1.25,3.31,0.69,-0.08,0.59,-51.27,-38.09,0.12,-0.14,-1.62,0.2042
0.18,0.15,-1.24,2.62,-0.72,-0.71,0.88,-50.68,-38.09,0.12,-0.14,-1.62,0.2045
0.18,0.15,-1.24,2.01,-2.7,-1.05,0.59,-50.98,-37.21,0.12,-0.14,-1.62,0.2049
0.18,0.15,-1.25,3.07,0.53,-0.44,1.46,-51.56,-38.38,0.12,-0.14,-1.61,0.2053
0.18,0.15,-1.25,3.4,-0.02,-0.35,0.59,-50.68,-37.5,0.12,-0.14,-1.62,0.2056
0.18,0.15,-1.24,2.34,-1.35,-0.98,0.59,-50.98,-38.67,0.12,-0.15,-1.63,0.206
0.18,0.16,-1.24,2.72,-0.64,-0.47,0.88,-51.27,-37.79,0.12,-0.14,-1.62,0.2064
0.18,0.16,-1.24,2.94,-0.6,-0.74,0.29,-51.27,-38.96,0.12,-0.14,-1.63,0.2068
0.18,0.15,-1.25,2.63,-0.66,-0.66,0.88,-52.15,-38.38,0.12,-0.14,-1.62,0.2071
0.18,0.15,-1.24,2.9,-0.32,-0.68,0.59,-51.27,-37.21,0.12,-0.15,-1.62,0.2075
0.18,0.15,-1.24,2.89,-1.26,-0.43,1.46,-51.27,-38.09,0.12,-0.14,-1.61,0.2079
0.18,0.16,-1.24,2.82,-0.82,-0.55,0.29,-50.68,-37.5,0.12,-0.14,-1.63,0.2083
0.18,0.15,-1.24,3.1,0.18,-0.43,0.88,-51.56,-37.79,0.12,-0.14,-1.62,0.2086
0.18,0.15,-1.24,3.09,-0.53,-0.72,-0.29,-50.68,-37.21,0.12,-0.15,-1.64,0.209
0.18,0.16,-1.25,3.46,-0.2,-0.74,0.29,-50.68,-38.09,0.12,-0.15,-1.63,0.2094
0.18,0.15,-1.25,3.4,-0.08,-0.33,0.59,-50.98,-38.38,0.12,-0.14,-1.63,0.2097
0.18,0.16,-1.24,2.59,-1.24,-0.67,0.0,-50.39,-38.09,0.12,-0.14,-1.64,0.2101
0.18,0.15,-1.24,2.51,-1.29,-0.63,1.17,-50.98,-37.79,0.12,-0.14,-1.61,0.2105
0.18,0.15,-1.24,2.48,-0.67,-0.4,1.17,-51.27,-37.21,0.12,-0.14,-1.61,0.2109
0.18,0.15,-1.25,3.16,-0.1,-0.44,0.88,-51.27,-37.79,0.12,-0.14,-1.62,0.2112
0.18,0.15,-1.24,3.04,-0.35,-0.39,0.88,-50.98,-37.79,0.12,-0.14,-1.62,0.2116
0.18,0.15,-1.24,3.0,-0.3,-0.66,0.59,-51.27,-38.09,0.12,-0.14,-1.63,0.212
0.18,0.16,-1.24,2.79,-0.68,-0.6,-0.29,-51.27,-38.09,0.12,-0.14,-1.64,0.2124
0.18,0.15,-1.24,2.37,-0.95,-0.72,1.17,-51.27,-38.38,0.12,-0.14,-1.62,0.2127
0.18,0.16,-1.24,3.36,0.07,-0.43,0.0,-51.27,-37.79,0.12,-0.14,-1.64,0.2131
0.18,0.15,-1.24,2.74,-0.99,-0.49,0.59,-51.56,-38.09,0.12,-0.14,-1.63,0.2135
0.18,0.15,-1.24,2.23,-2.04,-0.95,1.17,-50.39,-37.79,0.12,-0.14,-1.61,0.2139
0.18,0.15,-1.25,2.75,-0.73,-0.85,0.59,-50.39,-37.5,0.12,-0.14,-1.63,0.2143
0.18,0.15,-1.24,2.78,-0.24,-0.45,0.59,-50.1,-37.79,0.12,-0.14,-1.63,0.2146
0.18,0.16,-1.25,3.18,-0.47,-0.76,0.88,-51.86,-37.79,0.12,-0.14,-1.62,0.215
0.18,0.15,-1.24,2.51,-0.76,-0.47,0.29,-50.98,-37.79,0.12,-0.14,-1.63,0.2154
0.18,0.15,-1.25,2.84,-0.88,-0.4,0.88,-51.27,-38.09,0.12,-0.14,-1.62,0.2157
0.18,0.16,-1.24,2.89,-0.95,-0.56,1.46,-50.98,-38.38,0.12,-0.14,-1.61,0.2161
0.18,0.15,-1.25,3.0,-0.53,-0.37,0.59,-50.39,-37.21,0.12,-0.14,-1.62,0.2165
0.18,0.15,-1.24,2.87,-0.21,-0.66,0.59,-50.68,-37.79,0.12,-0.14,-1.63,0.2169
0.18,0.15,-1.24,2.88,-0.7,-0.6,0.0,-50.39,-38.09,0.12,-0.15,-1.64,0.2172
0.18,0.15,-1.25,3.07,-0.66,-0.54,1.17,-51.27,-37.79,0.12,-0.14,-1.61,0.2176
0.18,0.16,-1.25,3.47,0.23,-0.23,0.59,-50.68,-37.79,0.12,-0.14,-1.63,0.218
0.18,0.15,-1.25,2.89,-1.04,-0.43,0.88,-51.27,-38.09,0.12,-0.14,-1.62,0.2183
0.18,0.15,-1.24,2.55,-1.0,-0.54,1.17,-50.39,-37.21,0.12,-0.15,-1.61,0.2187
0.18,0.15,-1.24,2.91,-0.84,-0.5,1.46,-50.68,-38.09,0.12,-0.15,-1.61,0.2191
0.18,0.15,-1.24,2.28,-0.79,-0.13,0.59,-50.68,-38.09,0.12,-0.14,-1.63,0.2195
0.18,0.15,-1.24,1.95,-2.08,-0.82,0.29,-51.56,-39.26,0.12,-0.14,-1.63,0.2198
0.18,0.15,-1.24,3.34,0.4,-0.72,1.17,-50.98,-37.79,0.12,-0.14,-1.61,0.2202
0.17,0.16,-1.24,3.74,1.0,-0.18,1.17,-50.39,-37.5,0.13,-0.14,-1.62,0.2206
0.19,0.15,-1.24,1.43,-3.14,-0.91,0.88,-49.8,-37.79,0.12,-0.15,-1.62,0.2209
0.18,0.15,-1.25,2.71,-1.0,-0.6,0.59,-50.98,-37.21,0.12,-0.15,-1.62,0.2213
0.18,0.16,-1.25,4.09,1.77,-0.13,0.88,-50.98,-37.5,0.12,-0.14,-1.62,0.2217
0.18,0.15,-1.24,2.33,-1.69,-0.65,0.59,-50.68,-37.79,0.12,-0.14,-1.63,0.222
0.18,0.16,-1.24,2.46,-1.32,-0.79,1.46,-50.39,-38.67,0.12,-0.14,-1.61,0.2224
0.18,0.15,-1.25,2.69,-0.27,-0.66,1.46,-51.27,-37.21,0.12,-0.14,-1.61,0.2228
0.18,0.15,-1.24,2.88,-0.64,-0.33,0.88,-50.98,-38.67,0.12,-0.14,-1.62,0.2232
0.18,0.15,-1.25,2.82,-0.75,-0.31,0.29,-51.86,-38.38,0.12,-0.14,-1.63,0.2235
0.18,0.16,-1.24,2.85,-0.96,-0.69,0.59,-50.39,-38.09,0.12,-0.14,-1.63,0.2239
0.18,0.15,-1.24,3.19,0.45,-0.58,0.59,-50.98,-38.09,0.12,-0.14,-1.63,0.2243
0.18,0.15,-1.25,3.01,-0.28,-0.4,0.29,-50.39,-37.79,0.12,-0.14,-1.63,0.2247
0.18,0.15,-1.24,2.58,-1.16,-0.63,0.88,-51.27,-38.38,0.12,-0.14,-1.62,0.225
0.18,0.15,-1.25,2.3,-1.23,-0.63,0.0,-51.86,-38.09,0.12,-0.14,-1.63,0.2254
0.18,0.15,-1.24,2.94,-0.47,-0.45,1.46,-51.56,-37.21,0.12,-0.15,-1.61,0.2258
0.17,0.15,-1.25,3.14,-0.03,-0.83,1.17,-50.39,-38.09,0.12,-0.14,-1.62,0.2261
0.18,0.16,-1.24,1.96,-2.43,-0.84,0.59,-51.56,-38.09,0.13,-0.14,-1.63,0.2265
0.18,0.15,-1.24,2.14,-0.46,-0.56,0.59,-50.68,-38.96,0.12,-0.14,-1.63,0.2269
0.17,0.15,-1.24,3.26,0.39,-0.56,0.59,-50.98,-38.38,0.12,-0.14,-1.63,0.2273
0.18,0.15,-1.24,3.22,-0.76,-0.5,0.59,-51.56,-38.09,0.12,-0.14,-1.63,0.2276
0.18,0.15,-1.24,2.49,-1.02,-0.62,-0.29,-52.15,-38.38,0.12,-0.14,-1.64,0.228
0.18,0.15,-1.25,3.13,0.02,-0.53,0.59,-50.39,-37.79,0.12,-0.14,-1.63,0.2284
0.18,0.16,-1.24,3.12,-1.27,-0.44,0.59,-51.27,-38.38,0.12,-0.14,-1.63,0.2287
0.18,0.15,-1.24,2.43,-1.34,-0.6,1.76,-51.56,-37.79,0.12,-0.14,-1.61,0.2291
0.18,0.15,-1.24,2.45,-0.87,-0.7,1.17,-51.27,-37.79,0.12,-0.14,-1.61,0.2295
0.19,0.16,-1.24,2.76,-0.65,-0.79,0.59,-50.39,-37.79,0.12,-0.15,-1.63,0.2299
0.18,0.15,-1.24,3.03,-0.7,-0.84,0.59,-50.98,-38.38,0.12,-0.14,-1.63,0.2302
0.18,0.15,-1.25,3.52,1.5,-0.49,0.0,-51.27,-38.38,0.12,-0.14,-1.64,0.2306
0.17,0.15,-1.24,2.81,-1.23,-0.57,1.17,-51.56,-37.79,0.12,-0.14,-1.62,0.231
0.18,0.15,-1.24,2.43,-1.67,-0.76,1.46,-50.98,-37.79,0.12,-0.15,-1.61,0.2313
0.18,0.15,-1.24,3.05,0.05,-0.55,0.29,-51.56,-38.09,0.12,-0.14,-1.63,0.2317
0.18,0.15,-1.24,2.88,-0.37,-0.53,0.0,-51.56,-38.09,0.12,-0.14,-1.63,0.2321
0.19,0.15,-1.24,2.96,-0.9,-0.56,0.59,-50.98,-37.5,0.12,-0.15,-1.62,0.2324
0.18,0.15,-1.25,3.09,-0.24,-0.7,0.88,-50.98,-37.79,0.12,-0.14,-1.62,0.2328
0.18,0.15,-1.24,2.78,-1.97,-0.72,1.17,-50.1,-38.38,0.12,-0.14,-1.62,0.2332
0.18,0.15,-1.24,3.95,0.29,-0.49,1.46,-50.98,-38.09,0.12,-0.14,-1.61,0.2335
0.18,0.16,-1.24,3.15,0.18,-0.38,0.88,-51.27,-38.38,0.13,-0.14,-1.62,0.2339
0.18,0.15,-1.24,2.17,-2.46,-0.89,0.88,-50.68,-37.79,0.12,-0.14,-1.62,0.2343
0.18,0.15,-1.24,2.96,-0.68,-0.7,0.88,-50.68,-37.5,0.12,-0.14,-1.62,0.2347
0.17,0.15,-1.25,3.92,1.17,-0.21,0.29,-51.27,-38.09,0.12,-0.14,-1.63,0.235
0.18,0.16,-1.24,2.4,-1.72,-0.43,1.46,-50.39,-37.21,0.12,-0.14,-1.61,0.2354
0.18,0.15,-1.24,1.96,-2.73,-0.98,1.46,-50.98,-38.09,0.12,-0.15,-1.61,0.2358
0.18,0.15,-1.24,3.71,0.83,-0.05,0.88,-51.27,-38.09,0.12,-0.14,-1.62,0.2361
0.18,0.16,-1.24,3.88,2.38,-0.29,1.46,-51.27,-38.09,0.13,-0.14,-1.61,0.2365
0.18,0.16,-1.23,1.49,-2.95,-1.04,0.29,-50.1,-38.09,0.12,-0.15,-1.63,0.2369
0.18,0.15,-1.24,2.33,-1.03,-0.71,0.59,-50.68,-38.67,0.12,-0.15,-1.63,0.2372
0.17,0.15,-1.25,3.45,2.21,-0.07,0.59,-50.68,-38.96,0.12,-0.14,-1.63,0.2376
0.17,0.15,-1.24,2.24,-1.5,-0.63,0.0,-51.27,-37.79,0.12,-0.14,-1.64,0.238
0.18,0.15,-1.24,2.78,-0.98,-0.49,0.59,-51.86,-38.09,0.12,-0.14,-1.63,0.2384
0.17,0.15,-1.25,3.36,1.35,-0.48,1.17,-50.68,-38.09,0.12,-0.14,-1.62,0.2387
0.18,0.15,-1.24,3.08,-0.56,-0.61,0.59,-50.98,-37.79,0.12,-0.14,-1.63,0.2391
0.18,0.16,-1.24,2.62,-0.65,-0.74,0.29,-50.98,-37.5,0.12,-0.15,-1.63,0.2394
0.17,0.16,-1.24,2.84,-0.61,-0.42,0.88,-50.39,-38.09,0.12,-0.14,-1.62,0.2398
0.18,0.15,-1.25,1.89,-1.95,-0.7,0.59,-50.98,-38.38,0.12,-0.14,-1.63,0.2402
0.18,0.15,-1.25,2.17,-1.81,-0.4,0.0,-50.68,-38.09,0.12,-0.14,-1.64,0.2406
0.18,0.15,-1.25,2.61,-0.53,-0.32,0.0,-50.98,-37.5,0.12,-0.14,-1.63,0.2409
0.18,0.15,-1.25,3.2,0.35,-0.4,1.17,-50.68,-37.79,0.12,-0.14,-1.62,0.2413
0.18,0.16,-1.24,3.21,0.28,-0.35,1.17,-50.68,-37.5,0.12,-0.14,-1.62,0.2417
0.18,0.16,-1.24,2.65,-0.43,-0.83,0.29,-50.39,-38.67,0.12,-0.14,-1.63,0.2421
0.18,0.15,-1.24,2.73,-0.74,-0.48,0.0,-50.39,-37.5,0.12,-0.14,-1.64,0.2425
0.18,0.16,-1.24,2.77,-0.66,-0.45,0.0,-51.56,-38.38,0.12,-0.14,-1.64,0.2429
0.18,0.15,-1.25,2.58,-0.84,-0.5,1.46,-50.1,-38.67,0.12,-0.14,-1.61,0.2432
0.18,0.15,-1.25,2.29,-0.63,-0.76,0.59,-50.98,-38.09,0.12,-0.14,-1.63,0.2436
0.18,0.15,-1.25,3.23,0.08,-0.37,0.29,-50.39,-37.79,0.12,-0.14,-1.63,0.244
0.18,0.15,-1.25,3.02,-0.04,-0.53,1.17,-50.39,-38.09,0.12,-0.14,-1.62,0.2443
0.18,0.15,-1.24,2.95,-0.06,-0.4,1.17,-50.68,-37.5,0.12,-0.14,-1.62,0.2447
0.19,0.15,-1.24,2.82,-0.85,-0.58,1.76,-51.27,-38.96,0.12,-0.15,-1.61,0.2451
0.18,0.15,-1.24,2.66,-0.83,-1.23,0.59,-50.98,-38.09,0.12,-0.14,-1.63,0.2455
0.18,0.15,-1.24,3.23,-0.85,-0.69,0.59,-51.27,-36.91,0.12,-0.14,-1.62,0.2459
0.18,0.15,-1.24,2.83,-0.66,-0.82,0.29,-50.39,-37.79,0.12,-0.14,-1.63,0.2462
0.18,0.15,-1.24,2.98,-0.71,-0.71,0.29,-50.98,-38.38,0.12,-0.14,-1.63,0.2466
0.18,0.15,-1.25,2.72,-0.66,-0.63,0.88,-50.68,-37.21,0.12,-0.14,-1.62,0.247
0.18,0.15,-1.24,2.58,-0.61,-0.51,0.88,-51.27,-37.79,0.12,-0.14,-1.62,0.2474
0.18,0.15,-1.24,2.98,-0.42,-0.68,0.59,-51.56,-38.38,0.12,-0.14,-1.63,0.2477
0.18,0.15,-1.25,2.83,0.08,-0.65,0.59,-50.98,-38.38,0.12,-0.14,-1.63,0.2481
0.18,0.15,-1.25,2.98,-0.86,-0.62,0.88,-50.1,-37.5,0.12,-0.14,-1.62,0.2485
0.18,0.15,-1.24,2.32,-2.02,-0.62,0.88,-51.27,-38.09,0.12,-0.14,-1.62,0.2489
0.18,0.15,-1.24,2.43,-1.6,-0.46,0.29,-50.1,-37.21,0.12,-0.14,-1.63,0.2492
0.18,0.16,-1.24,3.21,0.32,-0.43,0.29,-50.39,-37.79,0.12,-0.14,-1.63,0.2496
0.18,0.15,-1.25,2.56,0.31,-0.53,0.88,-50.98,-38.09,0.11,-0.14,-1.62,0.25
0.18,0.15,-1.24,2.59,-0.92,-0.55,1.17,-50.68,-37.21,0.12,-0.14,-1.61,0.2504
0.18,0.15,-1.24,2.65,-1.17,-1.05,1.46,-51.56,-37.5,0.12,-0.14,-1.61,0.2507
0.18,0.15,-1.24,2.55,-0.84,-0.47,0.88,-50.68,-37.5,0.12,-0.14,-1.62,0.2511
0.18,0.16,-1.24,2.41,-1.33,-0.6,1.76,-50.68,-37.21,0.13,-0.14,-1.61,0.2515
0.18,0.15,-1.25,1.97,-2.04,-0.91,0.59,-50.39,-37.21,0.12,-0.14,-1.62,0.2518
0.17,0.15,-1.24,2.7,0.07,-0.43,0.29,-50.39,-37.79,0.12,-0.14,-1.63,0.2522
0.18,0.16,-1.24,3.46,-1.05,-0.72,0.88,-50.1,-38.09,0.13,-0.14,-1.62,0.2526
0.18,0.15,-1.24,2.57,-1.53,-0.6,0.88,-50.98,-38.67,0.12,-0.15,-1.62,0.2529
0.18,0.15,-1.25,3.64,0.98,-0.45,0.29,-50.68,-38.38,0.12,-0.14,-1.63,0.2533
0.18,0.16,-1.24,3.46,0.47,-0.22,1.17,-51.86,-37.79,0.12,-0.14,-1.62,0.2537
0.18,0.16,-1.24,2.97,-0.66,-0.61,0.0,-50.98,-37.79,0.12,-0.14,-1.64,0.254
0.17,0.15,-1.25,2.85,0.13,-0.62,0.59,-51.27,-38.67,0.12,-0.14,-1.63,0.2544
0.18,0.15,-1.24,2.12,-1.78,-0.59,0.59,-50.39,-38.38,0.12,-0.14,-1.63,0.2548
0.18,0.15,-1.24,3.23,-0.37,-0.4,1.46,-51.56,-38.09,0.12,-0.14,-1.61,0.2551
0.17,0.15,-1.24,2.87,0.61,-0.61,-0.29,-50.68,-38.67,0.12,-0.14,-1.64,0.2555
0.18,0.15,-1.25,2.36,-1.37,-0.71,0.59,-50.98,-38.09,0.12,-0.14,-1.62,0.2559
0.18,0.15,-1.24,3.15,0.6,-0.68,1.17,-51.27,-37.5,0.12,-0.14,-1.62,0.2562
0.18,0.16,-1.24,2.81,-0.36,-0.24,0.88,-51.27,-38.67,0.12,-0.14,-1.62,0.2566
0.18,0.15,-1.24,1.91,-2.75,-1.01,0.29,-51.56,-38.09,0.12,-0.15,-1.63,0.257
0.18,0.15,-1.24,3.37,0.37,-0.48,0.29,-50.98,-38.38,0.12,-0.14,-1.63,0.2574
0.18,0.16,-1.24,3.43,0.45,-0.34,0.0,-51.27,-38.38,0.13,-0.14,-1.64,0.2577
0.18,0.16,-1.25,1.82,-1.61,-0.69,0.88,-52.15,-38.67,0.12,-0.14,-1.62,0.2583
0.18,0.15,-1.25,3.35,-0.3,-0.3,1.17,-50.68,-37.79,0.12,-0.14,-1.62,0.2587
0.17,0.15,-1.25,2.94,0.36,-0.3,0.29,-51.27,-37.21,0.12,-0.14,-1.63,0.2591
0.18,0.15,-1.24,2.37,-1.3,-0.82,0.59,-50.68,-37.21,0.12,-0.14,-1.62,0.2595
0.18,0.16,-1.25,3.72,0.51,-0.48,1.17,-51.27,-37.5,0.12,-0.14,-1.62,0.2599
0.18,0.15,-1.24,3.41,0.93,-0.42,1.17,-51.56,-38.38,0.12,-0.14,-1.62,0.2603
0.18,0.15,-1.24,2.94,-0.98,-0.73,0.59,-51.56,-37.5,0.12,-0.14,-1.62,0.2606
0.18,0.15,-1.24,3.02,-1.34,-0.66,0.0,-51.86,-38.38,0.12,-0.14,-1.64,0.261
0.18,0.15,-1.24,3.07,-0.62,-0.39,1.46,-50.68,-37.21,0.12,-0.14,-1.61,0.2614
0.18,0.15,-1.24,2.49,-1.42,-0.39,1.76,-51.27,-37.79,0.12,-0.14,-1.6,0.2618
0.18,0.15,-1.24,3.11,0.04,-0.31,0.59,-50.98,-37.21,0.12,-0.14,-1.62,0.2622
0.18,0.15,-1.24,2.69,-0.68,-0.26,1.17,-49.8,-37.5,0.12,-0.14,-1.62,0.2626
0.17,0.15,-1.25,2.33,-0.65,-0.79,0.0,-50.98,-38.38,0.12,-0.14,-1.64,0.263
0.18,0.16,-1.24,3.02,-0.81,-0.69,0.59,-50.68,-37.21,0.13,-0.14,-1.63,0.2636
0.18,0.16,-1.24,2.73,-0.89,-0.56,1.76,-50.68,-38.09,0.13,-0.14,-1.61,0.264
0.18,0.16,-1.24,2.67,-1.08,-0.39,1.17,-51.56,-38.38,0.12,-0.14,-1.62,0.2644
0.18,0.15,-1.24,3.12,-0.67,-0.43,0.0,-51.27,-38.38,0.12,-0.14,-1.64,0.2648
0.18,0.16,-1.24,2.54,-0.95,-0.6,0.88,-50.68,-37.79,0.12,-0.14,-1.62,0.2651
0.18,0.15,-1.25,3.01,0.21,-0.66,0.29,-52.15,-38.38,0.12,-0.14,-1.63,0.2655
0.17,0.15,-1.25,2.94,-0.16,-0.55,0.59,-50.68,-37.5,0.12,-0.14,-1.63,0.2659
0.18,0.16,-1.24,3.35,-0.08,-0.6,1.46,-50.68,-38.09,0.12,-0.14,-1.61,0.2662
0.18,0.15,-1.24,3.06,0.06,-0.47,0.88,-50.98,-37.5,0.12,-0.14,-1.62,0.2666
0.18,0.15,-1.24,2.6,-0.37,-0.47,-0.29,-50.98,-37.5,0.12,-0.14,-1.64,0.267
0.18,0.16,-1.24,3.49,-0.89,-0.69,0.59,-50.98,-37.79,0.12,-0.14,-1.63,0.2673
0.18,0.15,-1.24,3.17,0.06,-0.41,0.88,-50.39,-38.38,0.12,-0.14,-1.62,0.2677
0.18,0.15,-1.24,3.0,-0.48,-0.57,0.59,-50.68,-37.79,0.12,-0.14,-1.63,0.2681
0.18,0.16,-1.24,2.52,-0.87,-0.5,0.59,-51.86,-38.38,0.12,-0.14,-1.63,0.2685
0.18,0.15,-1.24,2.5,-0.35,-0.74,-0.29,-50.98,-38.67,0.12,-0.14,-1.64,0.2689
0.18,0.15,-1.24,2.66,-0.69,-0.72,0.88,-50.39,-37.5,0.12,-0.14,-1.62,0.2692
0.18,0.15,-1.25,2.53,-1.0,-0.38,1.17,-50.39,-37.79,0.12,-0.14,-1.62,0.2696
0.17,0.15,-1.24,3.39,0.61,-0.39,0.0,-50.68,-38.09,0.12,-0.14,-1.64,0.27
0.18,0.15,-1.24,2.87,-0.45,-0.53,1.46,-50.68,-36.62,0.12,-0.14,-1.61,0.2703
0.18,0.16,-1.24,2.74,-0.63,-0.63,1.17,-51.27,-38.38,0.13,-0.14,-1.62,0.2707
0.18,0.16,-1.25,2.71,-0.06,-0.46,0.88,-49.8,-37.5,0.12,-0.14,-1.62,0.2711
0.18,0.16,-1.24,3.04,0.39,-0.24,0.59,-50.98,-38.38,0.13,-0.14,-1.63,0.2714
0.18,0.15,-1.24,2.49,-0.87,-0.56,0.88,-50.39,-37.5,0.12,-0.14,-1.62,0.2718
0.17,0.16,-1.24,3.11,-0.85,-0.4,0.88,-51.27,-38.67,0.12,-0.14,-1.62,0.2722
0.17,0.15,-1.24,2.46,-0.85,-0.43,0.88,-50.39,-37.21,0.12,-0.13,-1.62,0.2725
0.18,0.16,-1.24,2.74,-1.91,-0.51,1.17,-50.68,-37.79,0.13,-0.14,-1.62,0.2729
0.19,0.15,-1.24,4.17,0.24,0.47,2.05,-50.68,-37.5,0.12,-0.15,-1.6,0.2733
0.25,0.16,-1.19,-26.18,-36.52,-40.01,1.17,-51.56,-36.62,0.13,-0.21,-1.61,0.2737
0.25,0.31,-1.8,0.24,-14.97,-0.74,1.46,-50.68,-37.79,0.17,-0.13,-1.64,0.2741
0.16,0.03,-1.48,-20.35,-16.74,2.75,0.88,-50.68,-37.5,0.02,-0.11,-1.57,0.2745
0.11,0.15,-1.31,-17.97,-24.86,-67.4,2.05,-50.68,-36.91,0.11,-0.08,-1.6,0.2749
0.11,0.18,-1.24,39.88,22.04,70.39,1.17,-50.1,-36.62,0.15,-0.09,-1.64,0.2753
0.54,0.24,-1.53,85.13,55.89,4.21,1.17,-52.44,-37.21,0.15,-0.34,-1.59,0.2757
0.07,0.33,-1.38,6.67,54.85,-22.77,0.88,-55.96,-38.09,0.23,-0.05,-1.7,0.2761
0.13,0.2,-1.23,26.73,27.6,-7.88,-0.88,-56.54,-36.33,0.16,-0.11,-1.67,0.2764
0.04,-0.07,-1.15,58.27,61.76,201.18,2.34,-52.73,-33.11,-0.06,-0.03,-1.49,0.2768
0.03,-0.18,-1.18,10.14,-51.48,40.6,4.1,-45.12,-35.16,-0.15,-0.03,-1.37,0.2772
0.11,-0.17,-1.03,116.53,-145.92,57.77,4.1,-40.43,-32.52,-0.16,-0.1,-1.38,0.2776
0.1,-0.19,-1.32,2.03,-12.1,-38.64,5.86,-36.62,-31.05,-0.15,-0.08,-1.32,0.278
-0.04,-0.17,-1.18,-91.84,75.89,-80.97,2.64,-36.62,-35.16,-0.15,0.03,-1.35,0.2784
-0.06,-0.12,-0.85,-50.79,30.41,-52.85,0.88,-38.09,-37.5,-0.14,0.07,-1.39,0.2788
-0.16,-0.13,-1.05,-52.09,-92.97,-69.89,0.59,-39.84,-36.91,-0.12,0.15,-1.4,0.2792
-0.0,-0.06,-1.19,-67.76,-159.87,-31.87,-0.88,-39.55,-36.91,-0.05,0.0,-1.55,0.2796
-0.04,-0.23,-1.61,-55.09,-11.19,-31.66,-2.05,-39.55,-37.21,-0.14,0.03,-1.48,0.28
0.23,-0.01,-1.31,-141.82,44.56,-112.01,-2.05,-39.26,-37.79,-0.01,-0.17,-1.61,0.2804
0.01,-0.09,-0.96,-46.23,-36.62,-103.34,-3.22,-40.14,-38.67,-0.1,-0.01,-1.56,0.2808
-0.04,-0.2,-1.3,56.38,-54.88,-79.89,-1.46,-40.43,-38.96,-0.15,0.03,-1.45,0.2812
-0.18,-0.16,-1.62,-0.53,-2.14,-159.21,0.0,-41.31,-38.38,-0.09,0.11,-1.46,0.2816
-0.07,0.04,-1.22,-27.37,76.03,-97.25,0.88,-43.65,-38.67,0.04,0.06,-1.58,0.282
-0.22,-0.09,-1.24,-32.95,55.96,-58.57,0.0,-44.24,-38.38,-0.07,0.18,-1.48,0.2824
-0.23,-0.13,-1.06,-8.5,17.65,-66.6,-0.88,-45.7,-39.55,-0.12,0.21,-1.44,0.2828
-0.28,-0.17,-1.23,-5.59,-49.52,-98.07,0.0,-46.0,-39.26,-0.14,0.22,-1.39,0.2832
-0.18,-0.09,-1.28,24.8,-96.39,-77.26,-0.59,-45.12,-38.09,-0.07,0.14,-1.51,0.2836
-0.0,0.04,-1.23,-1.53,-55.8,-2.86,-0.29,-43.95,-39.26,0.03,0.0,-1.61,0.284
0.04,-0.01,-1.24,-87.33,53.39,18.56,-1.46,-45.12,-39.84,-0.01,-0.04,-1.6,0.2844
-0.15,-0.22,-1.24,-64.69,45.82,-32.84,-3.22,-45.12,-41.31,-0.18,0.12,-1.45,0.2848
-0.19,-0.21,-1.2,41.06,-25.38,-40.11,-1.76,-44.24,-39.84,-0.17,0.16,-1.4,0.2852
0.04,0.09,-0.8,-5.07,-18.23,-24.71,-1.46,-45.12,-40.14,0.11,-0.05,-1.69,0.2856
-0.16,-0.12,-1.34,18.65,-9.8,-29.11,-1.46,-45.12,-40.72,-0.09,0.12,-1.51,0.286
-0.26,-0.17,-1.47,36.42,-7.03,-66.69,-0.29,-44.53,-39.26,-0.11,0.17,-1.44,0.2864
-0.18,-0.05,-1.31,35.5,37.7,-35.54,0.29,-46.29,-38.96,-0.03,0.14,-1.52,0.2867
-0.32,-0.05,-1.42,15.64,-6.1,-111.82,0.59,-47.17,-38.96,-0.03,0.22,-1.51,0.2871
-0.19,0.07,-1.29,74.03,-39.41,-45.62,1.17,-47.17,-38.09,0.06,0.15,-1.6,0.2875
-0.06,0.2,-1.1,-18.15,-6.73,7.29,0.29,-46.29,-38.67,0.18,0.05,-1.73,0.2879
-0.12,-0.03,-1.26,-73.03,6.87,62.04,-1.17,-46.0,-39.55,-0.02,0.1,-1.58,0.2883
-0.1,-0.18,-1.15,-35.13,-3.41,40.0,-0.88,-45.41,-39.55,-0.16,0.09,-1.43,0.2887
-0.06,-0.2,-1.06,44.8,-37.22,0.97,-1.17,-44.82,-38.96,-0.19,0.06,-1.42,0.2891
-0.06,-0.15,-1.2,52.07,-20.75,-31.33,-0.59,-44.24,-37.5,-0.12,0.05,-1.47,0.2895
-0.04,-0.09,-1.2,22.19,20.52,4.4,-0.29,-44.24,-36.91,-0.08,0.04,-1.51,0.2898
-0.1,-0.11,-1.2,5.15,14.11,22.51,0.29,-44.24,-37.5,-0.09,0.09,-1.47,0.2902
-0.17,-0.19,-1.26,7.1,-9.09,29.37,-0.88,-44.24,-37.79,-0.15,0.13,-1.43,0.2906
-0.19,-0.24,-1.28,22.42,-17.78,21.98,-0.59,-43.65,-36.91,-0.18,0.14,-1.38,0.291
-0.25,-0.32,-1.52,73.94,23.15,10.01,-0.59,-43.65,-35.74,-0.2,0.16,-1.36,0.2914
-0.2,-0.15,-1.21,44.34,36.6,-72.93,0.88,-44.53,-35.74,-0.12,0.17,-1.41,0.2918
-0.05,0.05,-0.88,57.36,51.24,22.36,1.46,-45.12,-35.74,0.05,0.06,-1.58,0.2922
-0.28,-0.09,-1.34,-23.02,53.47,18.13,0.29,-45.12,-36.62,-0.07,0.21,-1.48,0.2926
-0.22,-0.07,-0.98,-47.29,-3.43,100.33,-1.17,-44.82,-37.5,-0.07,0.21,-1.51,0.293
-0.12,-0.17,-0.9,-50.08,-75.21,128.98,-2.64,-42.19,-37.79,-0.18,0.13,-1.43,0.2934
-0.15,-0.35,-1.26,16.44,-61.42,161.66,-3.22,-40.43,-36.04,-0.27,0.11,-1.36,0.2938
-0.09,-0.35,-1.21,21.44,34.59,46.17,-3.81,-40.72,-35.45,-0.28,0.07,-1.39,0.2942
-0.2,-0.35,-1.39,96.95,95.66,7.31,-4.1,-42.48,-37.21,-0.25,0.14,-1.4,0.2946
-0.27,-0.14,-1.3,100.02,46.72,-47.46,-1.76,-43.07,-36.62,-0.1,0.2,-1.49,0.295
-0.37,-0.05,-1.56,10.86,63.12,18.72,-2.64,-44.24,-36.91,-0.03,0.23,-1.6,0.2954
-0.22,0.02,-0.98,-17.58,9.06,58.92,-3.52,-44.82,-37.21,0.02,0.22,-1.7,0.2957
0.03,0.08,-0.7,43.69,-42.27,142.14,-2.93,-44.24,-37.21,0.12,-0.05,-1.72,0.2961
-0.16,-0.16,-1.39,-25.6,41.12,134.12,-3.22,-43.07,-37.5,-0.12,0.11,-1.53,0.2965
-0.2,-0.31,-1.27,-31.04,73.58,127.14,-3.81,-43.65,-37.5,-0.23,0.15,-1.4,0.297
-0.17,-0.27,-0.85,-32.15,14.66,76.47,-5.27,-43.65,-37.5,-0.3,0.18,-1.35,0.2974
-0.29,-0.43,-1.19,57.66,-46.77,56.74,-4.39,-43.65,-37.5,-0.34,0.22,-1.25,0.2977
-0.16,-0.3,-1.17,96.68,-70.65,-29.69,-2.64,-42.48,-36.33,-0.25,0.13,-1.37,0.2981
-0.13,-0.14,-1.3,30.46,23.85,-51.16,-2.64,-43.95,-36.33,-0.11,0.1,-1.53,0.2986
-0.35,-0.26,-1.65,58.93,85.42,-2.56,-0.88,-44.53,-36.33,-0.15,0.21,-1.41,0.299
-0.11,0.11,-0.74,-43.68,98.05,-12.71,-1.46,-46.0,-36.91,0.15,0.15,-1.76,0.2993
-0.43,-0.13,-1.13,-54.23,27.39,32.07,-2.34,-47.17,-36.91,-0.11,0.36,-1.47,0.2997
-0.41,-0.28,-1.3,-14.35,-91.17,45.68,-2.34,-45.12,-37.21,-0.2,0.3,-1.34,0.3001
-0.07,-0.19,-1.08,-24.8,-53.28,38.31,-3.52,-43.36,-36.62,-0.18,0.06,-1.49,0.3005
0.07,-0.21,-1.15,-1.72,22.48,38.69,-3.22,-44.53,-36.62,-0.18,-0.06,-1.51,0.3009
0.06,-0.24,-1.16,-4.25,55.87,-2.64,-3.81,-44.24,-37.21,-0.21,-0.05,-1.49,0.3013
-0.1,-0.25,-1.32,2.45,65.99,-21.48,-3.52,-46.29,-36.62,-0.19,0.07,-1.48,0.3017
-0.11,-0.07,-1.05,-39.38,37.95,-66.76,-4.69,-47.75,-37.79,-0.06,0.11,-1.62,0.3021
-0.21,-0.12,-1.19,36.03,-50.46,25.35,-3.81,-46.29,-37.5,-0.1,0.18,-1.55,0.3025
-0.25,-0.19,-1.52,28.82,-115.84,-18.47,-2.93,-44.53,-37.5,-0.12,0.16,-1.51,0.3029
0.03,0.01,-1.23,-7.61,-41.4,14.94,-4.69,-43.95,-37.79,0.01,-0.02,-1.68,0.3033
-0.03,-0.09,-1.32,-49.84,53.23,-3.39,-5.27,-44.24,-37.21,-0.07,0.02,-1.63,0.3037
-0.16,-0.14,-1.2,-23.48,38.94,-31.5,-4.69,-45.12,-37.5,-0.11,0.13,-1.57,0.3041
-0.27,-0.16,-1.3,21.3,-39.9,-89.7,-4.69,-44.53,-38.67,-0.12,0.2,-1.54,0.3045
-0.13,0.02,-1.35,108.24,-19.24,-23.53,-2.64,-44.53,-36.33,0.01,0.09,-1.65,0.3049
-0.05,0.25,-1.12,-112.78,66.53,11.77,-4.39,-45.12,-38.38,0.22,0.04,-1.87,0.3053
-0.28,-0.13,-1.2,-132.86,42.82,92.29,-5.86,-45.12,-37.5,-0.11,0.23,-1.6,0.3057
-0.39,-0.5,-1.45,55.21,-110.41,23.64,-6.15,-44.24,-37.79,-0.32,0.25,-1.3,0.3061
0.03,-0.1,-1.04,146.03,-120.16,-89.58,-3.22,-43.07,-36.91,-0.1,-0.03,-1.56,0.3065
0.01,0.05,-1.6,61.48,46.04,-108.66,-2.34,-43.65,-35.45,0.03,-0.01,-1.65,0.3069
-0.1,0.14,-1.32,-81.65,158.16,-19.11,-2.05,-46.58,-38.09,0.1,0.07,-1.72,0.3073
-0.34,-0.12,-1.32,-32.96,67.8,65.89,-3.81,-47.75,-38.09,-0.09,0.25,-1.55,0.3077
-0.26,-0.2,-1.16,1.85,-33.64,40.73,-3.81,-46.88,-38.38,-0.17,0.21,-1.46,0.3081
-0.01,-0.08,-1.01,29.45,-60.36,14.8,-3.22,-46.0,-37.5,-0.08,0.01,-1.58,0.3085
0.05,-0.11,-1.3,41.54,-17.56,20.63,-2.34,-45.41,-36.91,-0.09,-0.04,-1.56,0.3089
0.12,0.02,-1.13,8.92,-16.75,46.36,-2.93,-45.7,-36.62,0.02,-0.1,-1.64,0.3093
-0.12,-0.24,-1.67,-58.84,83.11,-5.27,-2.64,-46.58,-36.62,-0.14,0.07,-1.5,0.3097
-0.16,-0.25,-1.21,-49.71,51.32,-22.24,-3.81,-47.46,-37.21,-0.2,0.13,-1.45,0.3101
-0.05,-0.16,-0.88,-53.96,-74.13,11.38,-3.22,-45.7,-36.62,-0.17,0.06,-1.49,0.3105
-0.12,-0.37,-1.38,25.92,-67.21,31.9,-3.22,-43.65,-37.5,-0.26,0.09,-1.39,0.311
0.15,-0.11,-1.04,51.72,17.06,-35.8,-2.34,-44.53,-36.62,-0.11,-0.14,-1.55,0.3115
-0.1,-0.16,-1.34,30.24,51.05,-110.69,-2.05,-45.12,-37.21,-0.12,0.07,-1.51,0.3118
-0.09,-0.0,-1.09,63.99,25.72,-75.05,-0.29,-46.58,-36.33,-0.0,0.08,-1.58,0.3123
-0.04,0.15,-0.82,-44.74,-18.25,11.48,-1.17,-46.29,-36.91,0.18,0.05,-1.75,0.3127
-0.41,-0.34,-1.73,-1.9,-131.66,-33.87,-1.46,-44.24,-36.91,-0.19,0.23,-1.37,0.3131
0.09,-0.01,-1.07,24.79,-91.24,-40.13,-1.17,-42.77,-36.62,-0.01,-0.09,-1.59,0.3135
0.09,-0.03,-1.43,-40.95,35.7,-32.65,-0.29,-42.48,-36.62,-0.02,-0.06,-1.56,0.3139
-0.05,-0.12,-1.33,-107.09,73.36,46.19,-2.93,-42.48,-37.79,-0.09,0.04,-1.56,0.3143
-0.08,-0.27,-1.07,-64.17,31.2,71.4,-4.1,-42.77,-39.55,-0.25,0.07,-1.41,0.3147
-0.14,-0.33,-1.12,5.31,-18.06,-4.55,-4.69,-42.77,-39.26,-0.29,0.12,-1.36,0.3151
-0.19,-0.34,-1.43,68.12,-57.43,-77.96,-2.93,-41.89,-38.38,-0.23,0.13,-1.38,0.3155
0.03,-0.02,-1.28,71.92,-11.45,-68.47,-1.46,-42.77,-38.09,-0.02,-0.03,-1.59,0.3159
-0.02,0.08,-1.28,-16.43,72.17,-37.63,-2.34,-43.36,-37.79,0.06,0.02,-1.68,0.3163
-0.2,-0.05,-1.27,-18.14,3.64,22.83,-2.05,-43.36,-37.79,-0.04,0.15,-1.58,0.3167
-0.07,-0.02,-1.05,-19.1,-56.25,56.92,-3.22,-42.19,-37.5,-0.02,0.07,-1.63,0.3171
-0.03,-0.14,-1.29,-1.2,-34.97,48.16,-2.93,-41.02,-37.79,-0.11,0.03,-1.54,0.3175
-0.02,-0.17,-1.33,9.3,8.04,2.61,-3.22,-41.31,-37.79,-0.13,0.02,-1.53,0.3179
-0.08,-0.18,-1.35,29.05,31.72,-23.81,-2.93,-41.02,-37.21,-0.13,0.06,-1.51,0.3183
-0.1,-0.09,-1.22,45.36,2.73,-7.75,-1.17,-41.89,-37.79,-0.07,0.08,-1.52,0.3187
-0.07,0.01,-1.13,5.87,-12.34,7.08,-2.05,-42.19,-37.5,0.01,0.07,-1.63,0.319
-0.08,-0.02,-1.18,-9.88,29.47,54.72,-2.05,-42.19,-37.79,-0.02,0.07,-1.61,0.3194
-0.18,-0.13,-1.22,-33.31,21.07,2.79,-2.64,-42.19,-38.09,-0.1,0.14,-1.52,0.3198
-0.12,-0.15,-1.09,26.0,-30.0,2.96,-2.64,-42.19,-38.09,-0.13,0.11,-1.49,0.3202
-0.07,-0.14,-1.18,9.9,-32.66,-4.75,-2.34,-41.02,-36.91,-0.12,0.06,-1.51,0.3206
-0.01,-0.13,-1.18,-7.32,12.28,-18.59,-2.05,-42.19,-37.21,-0.11,0.01,-1.52,0.321
-0.19,-0.29,-1.52,47.36,10.74,-52.46,-2.64,-43.07,-37.79,-0.19,0.12,-1.43,0.3214
-0.01,0.06,-0.93,81.05,-14.84,-17.94,0.88,-42.77,-36.33,0.07,0.01,-1.61,0.3217
-0.24,-0.06,-1.37,-22.38,4.9,31.26,-0.29,-41.6,-36.62,-0.04,0.17,-1.53,0.3221
-0.19,-0.12,-1.24,-74.76,-21.01,79.79,-1.17,-41.6,-37.5,-0.1,0.15,-1.48,0.3225
-0.1,-0.28,-1.15,-13.96,-81.51,97.12,-3.52,-39.55,-37.21,-0.24,0.09,-1.4,0.323
-0.1,-0.35,-1.26,40.15,-20.08,12.02,-2.64,-38.96,-36.04,-0.27,0.07,-1.36,0.3234
-0.09,-0.19,-1.23,47.25,56.22,-94.66,-0.88,-40.43,-36.04,-0.15,0.07,-1.44,0.3238
-0.05,0.03,-0.88,-5.03,100.04,-49.03,-1.17,-41.02,-36.91,0.04,0.06,-1.64,0.3242
-0.33,-0.11,-1.12,-70.18,48.12,-34.92,-2.05,-43.65,-37.5,-0.1,0.28,-1.49,0.3245
-0.26,-0.19,-1.01,-41.62,-36.93,46.84,-2.93,-42.48,-38.38,-0.18,0.25,-1.39,0.325
-0.12,-0.24,-1.0,-83.27,-66.98,52.86,-4.39,-41.31,-38.67,-0.23,0.12,-1.42,0.3253
-0.25,-0.65,-1.75,110.53,-94.27,-40.64,-2.64,-40.43,-37.5,-0.35,0.13,-1.24,0.3258
0.37,0.16,-1.03,172.36,4.33,-158.6,0.88,-41.89,-36.04,0.14,-0.34,-1.61,0.3261
0.0,0.15,-1.74,-156.55,206.95,-127.31,0.0,-46.29,-37.79,0.08,-0.0,-1.64,0.3265
-0.26,-0.16,-1.3,-72.91,156.3,75.87,-1.76,-48.93,-37.79,-0.12,0.2,-1.47,0.3269
-0.28,-0.25,-0.99,42.88,-145.0,32.28,-1.17,-46.88,-38.67,-0.24,0.27,-1.27,0.3273
0.01,-0.13,-1.35,105.26,-191.13,62.83,0.0,-42.77,-37.21,-0.1,-0.01,-1.49,0.3278
0.23,-0.1,-1.73,-9.04,47.03,124.49,0.0,-41.02,-36.62,-0.06,-0.13,-1.53,0.3281
0.15,-0.27,-1.28,-54.63,141.16,117.92,-1.76,-42.77,-39.26,-0.21,-0.11,-1.46,0.3285
-0.24,-0.65,-1.54,144.46,77.67,15.11,1.46,-44.53,-37.21,-0.39,0.14,-1.14,0.3289
-0.07,-0.08,-1.17,153.46,15.02,-69.17,2.93,-46.58,-35.16,-0.07,0.06,-1.45,0.3293
-0.05,0.2,-1.36,16.96,-4.61,39.21,3.22,-46.88,-35.45,0.15,0.04,-1.62,0.3297
0.0,0.12,-1.25,-48.13,40.44,249.99,1.46,-42.77,-35.74,0.09,-0.0,-1.61,0.3301
-0.28,-0.37,-1.2,-164.99,15.71,111.68,-3.22,-41.31,-37.79,-0.29,0.22,-1.27,0.3305
-0.25,-0.65,-1.12,-13.46,-87.73,111.11,-5.27,-39.84,-36.62,-0.52,0.19,-1.09,0.3309
0.03,-0.46,-1.11,88.46,-64.06,100.46,-5.27,-38.67,-36.33,-0.39,-0.02,-1.36,0.3313
0.1,-0.37,-1.46,-131.43,-4.56,196.26,-6.74,-37.5,-35.74,-0.25,-0.07,-1.53,0.3317
0.18,-0.03,-0.77,-184.17,-16.08,-250.0,-6.15,-37.21,-36.04,-0.04,-0.23,-1.69,0.3321
-0.76,-0.4,-1.96,151.65,121.83,-174.38,-2.64,-41.02,-36.91,-0.19,0.36,-1.32,0.3325
-0.22,0.08,-0.57,135.23,42.42,-250.0,-0.88,-43.95,-37.79,0.13,0.37,-1.84,0.3329
-0.48,0.06,-1.28,-15.27,-45.88,-67.65,0.0,-43.36,-36.91,0.04,0.36,-1.65,0.3333
-0.24,-0.24,-1.62,69.9,-68.99,195.41,-1.76,-40.43,-35.74,-0.14,0.15,-1.45,0.3337
-0.01,-0.13,-1.2,-173.64,-25.61,150.85,-4.69,-39.84,-36.91,-0.11,0.01,-1.59,0.3341
-0.23,-0.66,-1.4,22.1,-33.63,-61.04,-5.86,-39.84,-36.62,-0.43,0.15,-1.22,0.3345
0.13,-0.33,-0.74,140.03,25.66,96.2,-4.1,-39.55,-36.62,-0.41,-0.16,-1.39,0.3349
-0.14,-0.51,-1.48,160.55,80.72,-57.91,-0.59,-39.84,-36.04,-0.33,0.09,-1.25,0.3353
-0.31,-0.09,-1.53,15.0,34.98,-224.62,0.59,-43.95,-35.16,-0.06,0.2,-1.49,0.3357
-0.22,-0.07,-1.57,35.3,192.39,159.06,0.59,-43.36,-35.74,-0.05,0.14,-1.5,0.3361
0.17,-0.26,-1.08,-144.47,-8.16,249.99,-1.76,-43.36,-37.5,-0.23,-0.15,-1.46,0.3365
-1.21,1.05,-1.55,-62.57,-191.7,-193.45,-0.29,-43.07,-36.33,0.49,0.57,-2.57,0.3369
0.39,-0.15,-0.69,85.99,109.75,132.65,-0.59,-42.19,-35.16,-0.19,-0.5,-1.55,0.3373
-0.05,-0.3,-1.23,-127.39,-102.94,26.22,-1.17,-41.31,-36.33,-0.24,0.04,-1.37,0.3377
0.58,-0.43,-1.22,-7.82,242.89,249.99,-1.46,-42.19,-36.91,-0.31,-0.42,-1.5,0.3381
-0.18,-0.48,-0.87,112.1,24.76,-128.36,-0.29,-42.48,-35.74,-0.49,0.18,-1.06,0.3385
-0.48,-0.13,-0.93,138.95,47.11,-14.95,0.88,-43.65,-35.16,-0.12,0.47,-1.27,0.3389
0.25,-0.94,-0.96,196.65,67.95,200.93,1.46,-42.19,-34.28,-0.76,-0.18,-1.19,0.3393
0.04,-0.74,-0.63,34.97,5.2,108.41,1.46,-41.02,-33.69,-0.86,-0.04,-1.03,0.3397
-0.07,-0.75,-0.69,3.5,20.74,111.13,0.0,-40.43,-33.69,-0.82,0.07,-0.96,0.3401
-0.39,-1.05,-0.99,17.09,1.53,53.17,-0.59,-39.26,-33.4,-0.78,0.27,-0.78,0.3404
-0.98,-1.6,-1.4,150.79,-50.77,-205.31,2.64,-41.6,-31.64,-0.75,0.43,-0.63,0.3409
-0.09,-0.98,-0.83,194.63,-2.14,-250.0,6.45,-48.63,-27.54,-0.87,0.07,-1.04,0.3413
0.0,0.03,-0.15,59.2,-7.35,-82.6,6.45,-50.1,-25.78,0.16,-0.02,-1.53,0.3417
0.14,0.46,-0.01,-63.26,-77.82,169.2,6.45,-48.05,-26.95,1.27,-0.3,-1.74,0.3421
0.04,0.11,-0.25,-129.05,-1.11,249.99,4.1,-40.43,-28.71,0.43,-0.14,-1.7,0.3424
-0.95,-1.7,-0.95,-73.93,43.26,99.96,0.29,-38.38,-30.18,-0.9,0.45,-0.55,0.3428
-1.19,-1.97,-1.13,124.64,-27.53,-238.72,4.69,-41.31,-28.71,-0.88,0.48,-0.56,0.3432
-0.17,-1.18,-0.6,225.3,13.95,-250.0,6.45,-51.86,-25.78,-1.08,0.12,-1.0,0.3436
0.23,0.11,-0.22,68.58,21.48,-92.38,5.57,-54.79,-23.73,0.32,-0.76,-1.36,0.344
0.26,0.27,0.01,-39.81,-32.81,172.33,6.15,-52.73,-24.02,0.8,-0.77,-1.25,0.3444
0.38,-0.25,-0.19,-124.69,19.0,249.99,4.98,-44.24,-26.66,-0.54,-0.87,-1.66,0.3448
-0.51,-1.07,-0.56,-85.1,52.94,249.99,2.34,-39.55,-29.0,-0.95,0.4,-0.62,0.3452
-0.98,-1.56,-0.51,1.07,3.74,26.42,2.34,-38.96,-29.59,-0.95,0.54,-0.44,0.3456
-0.63,-1.63,-0.62,83.13,-10.99,-174.18,3.81,-41.31,-27.83,-1.07,0.35,-0.67,0.346
-0.18,-0.96,-0.31,100.84,-6.89,-250.0,5.57,-46.29,-26.07,-1.21,0.18,-0.88,0.3464
0.11,-0.22,-0.14,31.04,-9.53,-121.64,6.74,-48.93,-25.78,-0.88,-0.4,-1.43,0.3468
0.28,-0.22,-0.19,-12.76,-3.65,38.67,5.86,-48.93,-25.2,-0.59,-0.76,-1.64,0.3472
0.2,-0.44,-0.15,-70.73,-4.28,143.45,6.15,-46.0,-26.07,-1.04,-0.41,-1.42,0.3476
0.07,-1.11,-0.24,-73.17,28.66,120.07,4.98,-42.77,-28.12,-1.35,-0.07,-1.05,0.348
-0.3,-2.0,-0.57,22.08,-1.88,-40.66,5.57,-44.24,-28.12,-1.26,0.14,-0.86,0.3484
0.03,-1.09,-0.22,-12.26,-28.92,-157.6,6.45,-46.29,-27.25,-1.37,-0.02,-1.05,0.3488
0.2,-1.02,-0.59,-3.78,-97.87,-38.66,6.45,-46.58,-28.42,-1.02,-0.17,-1.19,0.3492
0.05,-0.44,-0.35,-22.06,-105.58,79.03,5.86,-44.53,-28.12,-0.89,-0.09,-1.13,0.3496
-0.31,-0.27,-0.1,53.03,-93.81,0.46,6.15,-44.82,-27.25,-0.69,0.82,-0.27,0.3499
0.22,-0.15,-0.14,-191.3,-82.66,97.66,4.98,-44.24,-28.71,-0.51,-0.84,-1.62,0.3504
-0.02,-1.42,-0.39,104.47,-116.95,-180.62,5.57,-44.24,-27.83,-1.3,0.01,-0.99,0.3508
-0.65,-0.21,-0.14,-67.35,-187.81,-6.9,5.86,-43.36,-26.66,-0.31,1.2,0.41,0.3512
0.93,-0.82,-0.51,29.96,57.68,168.09,5.57,-44.53,-26.37,-0.66,-0.77,-1.63,0.3516
0.32,-0.61,-0.35,-70.98,77.47,-29.92,5.57,-45.7,-27.83,-0.91,-0.42,-1.41,0.352
-0.11,-0.81,-0.04,-105.64,10.55,-34.6,5.57,-47.17,-29.3,-1.42,0.14,-0.87,0.3524
1.18,-1.35,-0.28,22.45,241.42,1.05,5.86,-48.34,-28.12,-0.84,-0.71,-1.64,0.3528
-0.65,-0.15,-0.31,19.75,-13.27,-104.68,6.15,-47.46,-26.66,-0.21,1.08,0.08,0.3531
-0.36,-1.13,-0.51,30.16,-167.59,-14.98,5.57,-45.7,-26.07,-1.07,0.28,-0.8,0.3535
0.04,-1.35,-0.51,-19.75,-111.25,156.94,4.39,-43.65,-25.2,-1.21,-0.03,-1.08,0.354
0.12,-0.86,-0.17,11.47,-58.33,62.25,3.81,-42.19,-24.32,-1.34,-0.13,-1.18,0.3544
-0.21,-0.91,-0.25,-2.95,-46.84,61.97,4.1,-41.6,-23.44,-1.23,0.22,-0.85,0.3547
-0.43,-0.97,-0.34,20.26,-86.65,-100.65,4.39,-42.19,-24.32,-1.06,0.4,-0.69,0.3551
-0.03,-0.82,-0.14,10.48,-1.23,-0.24,4.69,-42.77,-23.14,-1.39,0.04,-1.03,0.3555
-0.21,-0.79,-0.19,-32.65,-5.23,-32.42,4.69,-43.07,-23.44,-1.22,0.26,-0.82,0.3559
0.32,2.0,-0.35,-250.0,249.99,-10.78,2.93,-42.77,-31.93,1.34,-0.16,-2.03,0.3563
0.33,-0.6,-0.8,50.55,-14.21,139.43,4.1,-43.36,-31.05,-0.61,-0.32,-1.33,0.3567
0.37,-0.92,-0.51,71.2,59.64,101.77,4.39,-43.36,-29.88,-0.97,-0.34,-1.31,0.3571
0.3,-1.06,-0.78,64.88,113.21,123.79,4.39,-43.07,-28.12,-0.9,-0.22,-1.24,0.3575
0.02,-0.73,-0.89,-48.24,140.21,6.9,4.69,-43.36,-30.47,-0.69,-0.01,-1.09,0.3579
0.36,-0.76,-0.44,-61.71,107.94,151.19,4.39,-43.95,-30.47,-0.93,-0.39,-1.35,0.3583
-0.16,-0.98,-0.48,39.63,-4.52,-21.74,4.69,-44.53,-30.18,-1.09,0.14,-0.86,0.3587
0.12,-0.84,-0.37,38.15,-36.84,-25.76,5.27,-44.82,-29.59,-1.14,-0.13,-1.12,0.3591
0.01,-0.99,-0.84,61.14,-37.61,21.86,5.86,-43.65,-26.95,-0.86,-0.01,-1.07,0.3595
-0.02,-0.87,-0.5,25.97,-4.33,25.37,5.57,-43.95,-27.25,-1.05,0.02,-1.01,0.3599
0.06,-0.93,-0.36,-14.16,-44.94,-25.28,6.45,-44.82,-27.25,-1.19,-0.06,-1.07,0.3603
-0.0,-1.07,-0.35,4.22,-9.83,0.95,5.57,-45.7,-27.25,-1.25,0.0,-1.03,0.3607
0.07,-0.86,-0.32,-6.41,-31.37,-26.2,6.15,-46.58,-27.25,-1.2,-0.08,-1.11,0.3611
0.23,-1.04,-0.39,21.25,-6.11,1.3,6.15,-46.29,-26.07,-1.16,-0.2,-1.24,0.3614
0.18,-0.92,-0.27,-3.3,-30.21,17.33,5.86,-44.82,-26.37,-1.23,-0.18,-1.2,0.3618
0.37,-0.98,-0.41,-19.9,-39.49,5.08,5.86,-45.41,-26.37,-1.06,-0.33,-1.35,0.3622
0.29,-0.95,-0.4,2.29,-16.59,22.96,5.27,-44.82,-27.25,-1.09,-0.28,-1.29,0.3626
0.08,-0.93,-0.38,64.9,-15.14,144.26,5.27,-43.36,-26.66,-1.17,-0.08,-1.1,0.363
-0.04,-0.97,-0.3,38.54,3.77,27.52,4.69,-43.07,-25.78,-1.27,0.04,-0.99,0.3634
0.03,-0.97,-0.27,25.7,-33.96,-14.27,4.39,-43.65,-24.32,-1.3,-0.03,-1.09,0.3638
-0.02,-0.98,-0.25,20.37,-16.24,-34.15,5.27,-43.95,-25.2,-1.32,0.02,-1.03,0.3642
0.19,-0.75,0.16,-35.43,54.08,25.95,5.86,-44.53,-26.37,-1.25,-0.24,-1.26,0.3646
0.32,-1.02,-0.12,-38.96,84.53,83.81,5.27,-42.77,-26.66,-1.25,-0.3,-1.3,0.365
-0.25,-0.91,-0.42,-21.98,-26.38,-18.2,4.98,-42.77,-28.12,-1.08,0.24,-0.78,0.3654
0.24,-0.68,-0.45,-47.15,15.07,-37.42,4.1,-42.48,-29.0,-0.93,-0.29,-1.27,0.3658
0.18,-0.92,-0.42,12.04,27.14,-8.26,4.39,-43.65,-29.0,-1.11,-0.18,-1.16,0.3662
-0.03,-0.87,-0.47,-7.86,-42.17,-22.46,4.39,-43.95,-29.0,-1.07,0.03,-0.98,0.3666
0.05,-0.9,-0.49,1.8,-7.64,-1.46,4.98,-43.65,-28.71,-1.07,-0.05,-1.05,0.3669
0.08,-0.89,-0.49,-3.27,16.05,-13.44,4.98,-43.65,-29.3,-1.06,-0.08,-1.07,0.3673
0.25,-0.76,-0.47,-24.69,65.14,-7.25,4.69,-44.53,-30.18,-0.96,-0.27,-1.25,0.3677
0.06,-0.94,-0.67,-14.64,31.01,2.82,4.39,-44.24,-30.47,-0.95,-0.05,-1.07,0.3681
0.07,-0.87,-0.56,-4.46,-1.36,-3.22,4.69,-43.36,-29.88,-1.0,-0.07,-1.06,0.3685
0.03,-0.91,-0.61,-2.9,6.49,-14.85,4.98,-43.95,-30.18,-0.98,-0.03,-1.03,0.3689
0.15,-0.96,-0.64,-7.81,-36.01,-11.7,5.27,-43.95,-30.47,-0.97,-0.13,-1.12,0.3693
0.17,-0.93,-0.6,10.51,-13.27,-7.1,5.27,-44.24,-30.47,-0.97,-0.15,-1.14,0.3697
0.12,-0.88,-0.56,8.93,-17.81,-1.24,4.69,-44.82,-29.88,-0.99,-0.12,-1.12,0.37
0.1,-0.88,-0.59,10.03,-32.07,10.58,4.98,-43.95,-30.76,-0.98,-0.09,-1.08,0.3704
0.1,-0.9,-0.58,1.53,34.18,9.93,4.69,-43.95,-29.88,-0.99,-0.09,-1.09,0.3708
0.11,-0.92,-0.63,1.11,9.99,3.58,4.39,-44.24,-30.47,-0.97,-0.1,-1.1,0.3712
0.07,-0.92,-0.62,9.44,-9.64,5.33,4.39,-43.36,-30.18,-0.98,-0.06,-1.06,0.3716
0.14,-0.89,-0.5,8.16,1.96,-0.09,5.27,-43.95,-30.18,-1.05,-0.14,-1.11,0.3719
0.03,-0.93,-0.55,10.44,2.09,-0.59,4.69,-43.95,-30.18,-1.03,-0.03,-1.03,0.3723
0.08,-0.89,-0.54,11.11,0.84,-2.56,4.98,-43.95,-29.88,-1.02,-0.07,-1.07,0.3727
0.03,-0.93,-0.58,17.75,-13.63,-0.46,4.1,-44.53,-29.0,-1.01,-0.02,-1.05,0.3731
0.03,-0.88,-0.51,10.06,-12.18,1.59,5.27,-43.95,-29.3,-1.04,-0.03,-1.03,0.3735
0.15,-0.95,-0.5,20.03,27.57,10.26,4.98,-44.82,-29.88,-1.06,-0.14,-1.13,0.3739
-0.02,-0.89,-0.47,12.79,33.48,-5.71,5.86,-44.53,-29.0,-1.09,0.02,-0.98,0.3743
0.1,-0.92,-0.47,15.85,16.33,12.66,4.69,-44.53,-29.59,-1.09,-0.09,-1.09,0.3747
0.08,-0.92,-0.47,5.17,-1.98,2.59,4.98,-43.95,-29.0,-1.09,-0.08,-1.08,0.3751
0.08,-0.98,-0.52,6.5,2.88,-7.77,5.27,-43.95,-28.71,-1.08,-0.07,-1.07,0.3755
0.07,-0.92,-0.42,9.57,-11.5,8.26,4.98,-44.24,-28.71,-1.14,-0.07,-1.07,0.3758
0.05,-0.98,-0.49,16.08,4.59,16.8,5.27,-44.24,-29.0,-1.1,-0.05,-1.05,0.3762
0.04,-0.85,-0.37,-3.75,-12.29,29.24,5.57,-43.07,-28.42,-1.16,-0.04,-1.03,0.3766
-0.0,-0.91,-0.45,-2.98,-11.86,9.31,4.39,-43.36,-28.71,-1.12,0.0,-1.0,0.377
-0.02,-0.89,-0.43,-9.31,-8.35,-2.75,3.52,-42.48,-29.3,-1.12,0.02,-0.97,0.3774
-0.02,-0.94,-0.45,0.82,-9.77,-2.49,4.1,-42.19,-29.3,-1.12,0.02,-0.97,0.3778
-0.02,-0.96,-0.49,2.83,-8.45,-1.08,4.39,-43.36,-28.42,-1.09,0.02,-0.99,0.3782
0.0,-0.9,-0.44,2.88,-7.46,-7.08,4.98,-42.77,-29.0,-1.12,-0.0,-0.99,0.3785
0.01,-0.94,-0.48,12.22,-3.58,-10.15,5.57,-43.36,-28.42,-1.1,-0.01,-1.01,0.3789
0.0,-0.89,-0.41,10.6,4.64,-1.04,4.69,-42.77,-27.54,-1.14,-0.0,-1.01,0.3793
0.04,-0.92,-0.4,3.91,19.79,2.01,4.39,-44.24,-28.71,-1.16,-0.04,-1.04,0.3797
-0.02,-0.97,-0.47,15.79,16.94,-3.3,4.69,-43.36,-28.71,-1.12,0.02,-0.98,0.3801
0.03,-0.92,-0.41,20.23,19.33,-12.35,4.98,-43.95,-28.71,-1.15,-0.03,-1.02,0.3805
0.03,-0.92,-0.4,5.33,1.95,-4.91,4.39,-43.36,-28.42,-1.16,-0.03,-1.03,0.3808
0.02,-0.93,-0.4,-1.89,-6.86,-0.85,5.27,-44.82,-29.0,-1.17,-0.02,-1.02,0.3812
0.04,-0.96,-0.43,0.91,-7.58,-5.16,4.98,-43.95,-28.42,-1.15,-0.04,-1.04,0.3816
0.05,-0.95,-0.41,-0.27,-9.07,-0.12,4.39,-43.95,-28.42,-1.15,-0.05,-1.06,0.382
0.03,-0.93,-0.41,2.67,-4.89,0.04,4.98,-43.36,-28.71,-1.16,-0.03,-1.02,0.3823
0.02,-0.93,-0.41,0.41,-3.54,0.03,4.69,-43.07,-29.0,-1.15,-0.02,-1.01,0.3827
0.03,-0.94,-0.41,-1.87,-3.63,-0.57,4.98,-45.12,-28.42,-1.16,-0.03,-1.04,0.3831
0.04,-0.92,-0.42,1.8,-1.05,-0.81,4.69,-43.65,-28.42,-1.15,-0.04,-1.04,0.3834
0.01,-0.96,-0.44,6.42,0.34,-1.93,4.39,-43.65,-27.83,-1.14,-0.01,-1.03,0.3838
0.06,-0.93,-0.4,5.39,5.41,1.8,4.98,-43.65,-28.42,-1.16,-0.06,-1.05,0.3842
0.04,-0.91,-0.41,1.4,13.47,7.49,5.27,-43.65,-28.71,-1.14,-0.04,-1.03,0.3846
0.01,-0.94,-0.45,2.48,0.18,0.51,5.27,-43.36,-28.12,-1.13,-0.01,-1.01,0.385
0.04,-0.95,-0.43,4.45,0.31,-0.99,4.1,-43.65,-27.83,-1.15,-0.04,-1.05,0.3853
0.04,-0.94,-0.42,4.73,-1.4,-4.52,4.39,-43.65,-28.42,-1.15,-0.03,-1.04,0.4054
0.03,-0.93,-0.42,2.32,-3.55,-4.11,4.98,-44.24,-29.0,-1.15,-0.03,-1.03,0.4787
0.05,-0.91,-0.4,0.56,-1.01,-2.96,4.98,-43.65,-28.12,-1.15,-0.05,-1.06,0.5524
0.03,-0.95,-0.42,2.66,0.64,-6.6,5.27,-43.95,-28.12,-1.15,-0.03,-1.03,0.6261
0.02,-0.98,-0.38,-0.11,-7.13,-7.48,5.57,-44.53,-28.12,-1.2,-0.02,-1.03,0.6999
0.05,-1.17,-0.38,28.21,2.51,-28.54,5.86,-44.24,-28.42,-1.26,-0.04,-1.03,0.7737
0.13,-1.4,-0.51,76.26,1.71,-11.92,5.27,-45.7,-27.83,-1.21,-0.09,-1.11,0.8473
0.11,-1.14,-0.39,90.78,7.24,-6.55,5.86,-46.29,-24.9,-1.23,-0.09,-1.15,0.9211
0.18,-0.88,-0.2,83.06,16.19,-2.18,5.86,-45.7,-24.32,-1.27,-0.2,-1.26,0.9947
0.03,-0.64,-0.16,42.96,1.85,-5.67,6.15,-46.58,-23.14,-1.32,-0.05,-1.14,1.0685
0.09,-0.42,-0.08,14.11,7.5,-17.01,5.57,-47.17,-23.14,-1.3,-0.2,-1.3,1.1422
0.17,-0.33,-0.01,-45.99,-15.15,-21.49,6.45,-46.58,-24.61,-1.09,-0.48,-1.51,1.216
0.2,-0.6,-0.14,-79.83,-13.35,-2.55,5.57,-46.0,-24.9,-1.19,-0.31,-1.36,1.2897
0.28,-0.8,-0.22,-109.12,-7.87,12.89,5.27,-45.41,-26.37,-1.16,-0.32,-1.34,1.3635
0.16,-1.31,-0.37,-87.02,-12.11,13.4,5.27,-45.12,-28.71,-1.27,-0.12,-1.11,1.4376
0.15,-1.63,-0.57,-6.69,-3.21,-2.13,4.69,-45.7,-28.71,-1.22,-0.08,-1.09,1.5109
0.13,-1.52,-0.64,68.42,6.25,-35.95,5.86,-46.29,-27.54,-1.16,-0.08,-1.1,1.5847
0.27,-1.29,-0.41,96.84,19.78,-25.53,6.45,-46.88,-26.07,-1.21,-0.19,-1.24,1.6585
0.27,-1.12,-0.3,107.8,19.66,-13.02,5.86,-47.46,-24.61,-1.22,-0.23,-1.3,1.7322
0.2,-0.9,-0.29,109.08,19.49,-16.44,6.45,-48.05,-21.97,-1.2,-0.21,-1.32,1.8059
0.26,-0.4,-0.02,68.69,24.8,-3.39,6.15,-49.22,-21.39,-0.99,-0.58,-1.65,1.8795
0.19,-0.24,0.11,18.06,8.01,-10.66,6.15,-48.93,-20.21,-0.82,-0.64,-1.67,1.9533
0.07,-0.2,0.15,-43.95,-10.09,-26.08,6.15,-49.22,-20.51,-0.87,-0.26,-1.39,2.0269
0.16,-0.56,0.0,-78.64,-28.88,-9.52,7.32,-48.34,-21.97,-1.29,-0.28,-1.39,2.1007
0.35,-0.67,-0.05,-110.03,-1.72,38.13,6.74,-48.93,-24.61,-1.08,-0.48,-1.53,2.1745
0.44,-1.12,-0.45,-80.37,-0.14,48.12,6.15,-46.88,-26.66,-1.05,-0.35,-1.37,2.2481
0.15,-1.13,-0.53,-83.98,-5.0,20.45,5.57,-45.41,-28.12,-1.12,-0.12,-1.13,2.3219
0.19,-1.24,-0.44,-66.45,-9.15,-0.96,4.98,-45.41,-29.0,-1.2,-0.15,-1.14,2.3956
0.17,-1.32,-0.34,-28.37,-3.49,-14.19,4.98,-45.7,-29.88,-1.29,-0.12,-1.11,2.4693
0.18,-1.65,-0.67,50.17,-10.74,-6.21,5.27,-46.0,-29.0,-1.17,-0.1,-1.11,2.5432
0.27,-1.28,-0.46,78.95,7.88,1.76,4.98,-46.0,-27.83,-1.18,-0.19,-1.21,2.6168
0.23,-1.23,-0.45,86.94,8.83,2.58,5.57,-45.7,-26.37,-1.18,-0.18,-1.21,2.6905
0.28,-1.24,-0.54,101.2,6.51,31.69,6.15,-46.0,-24.61,-1.12,-0.2,-1.26,2.7642
0.18,-0.68,-0.16,78.62,21.64,-2.36,6.15,-46.58,-22.85,-1.23,-0.25,-1.34,2.838
0.17,-0.5,-0.14,66.06,16.15,-13.02,5.86,-47.46,-22.85,-1.16,-0.31,-1.4,2.9117
0.17,-0.41,-0.02,37.81,27.32,-6.82,6.15,-48.05,-21.68,-1.17,-0.4,-1.5,2.9854
0.05,-0.35,0.03,-5.48,11.18,-1.69,6.15,-47.46,-20.8,-1.41,-0.14,-1.28,3.0592
0.2,-0.46,0.13,-59.2,3.56,6.45,7.03,-47.17,-22.56,-1.08,-0.4,-1.47,3.1328
0.16,-0.73,-0.01,-85.51,-27.5,13.06,6.15,-46.58,-24.32,-1.35,-0.22,-1.29,3.2068
0.13,-0.86,-0.19,-95.28,-15.4,28.31,6.45,-45.41,-26.37,-1.31,-0.15,-1.18,3.2842
0.09,-0.97,-0.47,-77.35,-4.67,26.29,5.27,-44.53,-27.25,-1.11,-0.08,-1.1,3.3541
-0.04,-1.07,-0.3,-85.07,9.06,39.46,4.98,-43.65,-29.88,-1.29,0.03,-0.93,3.4277
-0.19,-1.51,-0.5,-31.06,7.27,19.76,4.39,-43.36,-30.47,-1.23,0.12,-0.84,3.5016
-0.12,-1.63,-0.59,47.95,-3.2,29.54,4.69,-42.48,-29.0,-1.22,0.07,-0.91,3.5754
-0.12,-1.3,-0.44,81.92,-16.87,17.82,4.69,-42.77,-27.25,-1.24,0.09,-0.92,3.6529
-0.2,-1.11,-0.33,90.72,-19.43,-20.49,5.57,-42.77,-26.07,-1.23,0.17,-0.85,3.7266
-0.05,-0.87,-0.23,81.97,-9.3,-24.64,5.57,-44.24,-25.49,-1.3,0.06,-0.98,3.8004
0.02,-0.76,-0.14,65.45,-3.99,-8.31,5.57,-44.82,-23.44,-1.38,-0.02,-1.1,3.8741
0.01,-0.6,-0.18,42.09,2.78,-16.33,6.15,-44.82,-22.56,-1.29,-0.02,-1.11,3.9478
0.08,-0.45,-0.08,8.32,-14.91,-22.8,5.86,-44.82,-22.27,-1.33,-0.17,-1.26,4.0215
0.06,-0.39,-0.07,-27.31,-12.47,-17.72,5.57,-45.12,-22.85,-1.33,-0.15,-1.23,4.0953
0.08,-0.58,-0.16,-45.72,19.94,0.51,6.15,-45.41,-23.14,-1.28,-0.13,-1.21,4.169
-0.14,-0.63,-0.19,-79.48,-1.02,-21.51,5.57,-46.0,-24.9,-1.21,0.21,-0.87,4.2427
-0.13,-0.89,-0.27,-89.5,-17.81,-18.68,5.27,-45.41,-27.54,-1.25,0.13,-0.89,4.3165
0.3,-1.06,-0.26,-82.36,15.37,-9.31,5.27,-44.82,-28.71,-1.22,-0.27,-1.25,4.3902
0.29,-1.31,-0.49,-42.95,20.04,2.68,4.39,-44.53,-29.59,-1.16,-0.21,-1.19,4.4639
0.03,-1.52,-0.52,-12.02,-6.77,-7.27,4.39,-45.7,-29.88,-1.24,-0.02,-1.01,4.5377
0.18,-1.56,-0.6,52.41,-9.86,1.65,5.57,-45.12,-29.0,-1.19,-0.11,-1.1,4.6114
0.14,-1.13,-0.37,58.49,-10.25,13.69,4.98,-45.12,-27.83,-1.23,-0.12,-1.13,4.6851
0.06,-1.1,-0.27,62.24,-11.69,3.27,6.15,-43.65,-26.37,-1.33,-0.06,-1.07,4.7588
0.13,-1.3,-0.41,95.09,10.49,-1.05,6.15,-46.0,-25.2,-1.25,-0.09,-1.15,4.8329
0.13,-0.85,-0.12,61.1,-1.43,17.79,6.45,-45.7,-24.9,-1.37,-0.15,-1.2,4.9063
0.07,-0.69,-0.18,59.81,-6.66,-0.21,5.57,-46.0,-23.14,-1.3,-0.1,-1.19,4.9801
0.13,-0.5,-0.08,31.72,-0.78,-7.76,5.86,-46.0,-22.27,-1.28,-0.25,-1.34,5.0537
0.15,-0.47,-0.08,1.72,-15.2,3.17,5.57,-46.29,-21.97,-1.23,-0.3,-1.4,5.1274
0.05,-0.43,-0.01,-29.13,-8.31,-2.92,6.15,-46.58,-22.56,-1.44,-0.13,-1.23,5.2012
0.07,-0.55,-0.03,-64.76,-7.86,-1.67,6.15,-45.41,-23.44,-1.43,-0.12,-1.2,5.2749
0.16,-0.74,-0.07,-85.49,0.86,-12.66,5.86,-46.0,-24.9,-1.34,-0.21,-1.26,5.3486
0.08,-0.9,-0.4,-75.58,20.09,-37.51,6.15,-46.0,-27.25,-1.14,-0.08,-1.11,5.4224
0.23,-1.19,-0.57,-101.42,-2.09,18.07,5.27,-45.41,-28.71,-1.09,-0.17,-1.18,5.4961
0.19,-1.3,-0.45,-68.6,3.19,0.76,4.98,-44.82,-30.18,-1.21,-0.14,-1.11,5.5697
0.13,-1.71,-0.66,0.94,-4.44,-1.21,4.69,-45.41,-30.76,-1.2,-0.07,-1.05,5.6435
0.15,-1.64,-0.69,70.66,-1.91,2.24,4.98,-45.7,-29.3,-1.16,-0.09,-1.09,5.7172
0.13,-1.32,-0.49,101.01,-6.65,3.0,5.27,-46.0,-27.83,-1.2,-0.09,-1.11,5.791
0.2,-1.13,-0.36,108.41,5.52,11.92,6.45,-46.29,-26.07,-1.22,-0.17,-1.21,5.8648
0.17,-0.89,-0.26,106.05,-0.84,6.83,6.45,-46.29,-23.73,-1.24,-0.18,-1.25,5.9385
0.04,-0.6,-0.14,95.63,-27.65,-3.04,5.86,-46.88,-22.27,-1.33,-0.06,-1.18,6.0122
0.11,-0.38,-0.08,35.92,-0.01,3.34,5.86,-46.29,-20.8,-1.22,-0.28,-1.4,6.0859
0.17,-0.39,-0.03,-3.63,-6.0,-5.2,6.74,-46.88,-20.51,-1.16,-0.4,-1.51,6.1596
0.03,-0.36,-0.02,-41.14,-12.61,-11.41,6.15,-46.29,-21.68,-1.47,-0.07,-1.2,6.2335
0.15,-0.43,0.07,-86.34,-8.88,-6.17,6.45,-46.58,-23.14,-1.21,-0.33,-1.41,6.3072
0.07,-0.63,-0.06,-108.15,-25.81,-49.29,5.86,-46.29,-24.9,-1.42,-0.11,-1.18,6.3809
0.39,-1.17,-0.62,-94.6,10.96,-29.6,6.45,-46.29,-26.95,-1.01,-0.29,-1.3,6.4548
0.45,-1.27,-0.43,-79.15,9.48,9.34,4.39,-46.0,-29.0,-1.12,-0.33,-1.32,6.5283
0.25,-1.38,-0.49,-44.44,8.2,1.13,4.98,-46.88,-29.3,-1.19,-0.17,-1.18,6.6021
0.33,-1.96,-0.68,53.45,2.3,26.07,4.69,-46.58,-29.0,-1.2,-0.16,-1.17,6.6758
0.3,-1.62,-0.51,102.19,4.5,12.83,5.27,-46.0,-27.54,-1.22,-0.17,-1.19,6.7496
0.26,-1.12,-0.34,119.72,12.25,10.28,5.86,-46.58,-25.49,-1.21,-0.22,-1.27,6.8233
0.22,-0.88,-0.28,103.39,-5.75,11.8,6.74,-46.58,-23.44,-1.18,-0.24,-1.31,6.897
0.19,-0.59,-0.09,92.77,4.32,21.05,6.15,-46.58,-22.27,-1.23,-0.3,-1.4,6.9708
0.21,-0.28,0.06,32.65,6.81,10.67,5.86,-47.17,-19.92,-0.91,-0.63,-1.69,7.0444
0.09,-0.32,-0.04,10.24,1.15,-6.55,5.27,-46.58,-21.39,-1.28,-0.26,-1.38,7.1181
0.14,-0.32,0.07,-32.8,-9.57,-7.92,6.15,-47.75,-20.8,-1.11,-0.41,-1.52,7.1923
0.13,-0.49,0.07,-71.62,-9.56,-11.39,6.45,-47.17,-21.97,-1.28,-0.26,-1.36,7.2657
0.39,-0.75,-0.01,-94.8,10.75,-12.46,7.03,-47.17,-24.61,-1.09,-0.48,-1.51,7.3395
0.31,-0.96,-0.31,-87.31,11.54,-32.17,5.86,-46.29,-25.78,-1.14,-0.3,-1.34,7.4132
0.27,-1.28,-0.56,-61.15,-18.8,-3.68,5.86,-47.17,-27.25,-1.12,-0.19,-1.23,7.4869
0.22,-1.38,-0.35,-55.76,-6.0,17.61,5.57,-46.58,-28.42,-1.28,-0.16,-1.17,7.5606
0.3,-1.8,-0.4,15.86,-0.51,17.53,5.27,-46.0,-28.12,-1.3,-0.16,-1.17,7.6343
0.23,-1.66,-0.53,101.43,8.4,3.99,6.15,-46.58,-26.95,-1.24,-0.13,-1.16,7.7079
0.22,-1.14,-0.25,110.46,7.13,7.26,5.86,-46.29,-24.9,-1.29,-0.18,-1.24,7.7817
0.11,-0.94,-0.13,98.93,5.69,10.54,5.86,-47.17,-23.44,-1.39,-0.11,-1.21,7.8554
0.17,-0.86,-0.15,87.36,18.42,3.3,6.15,-47.46,-20.8,-1.31,-0.2,-1.33,7.9291
0.05,-0.63,-0.05,61.49,-1.86,7.19,6.15,-48.34,-19.34,-1.45,-0.09,-1.26,8.0029
0.08,-0.4,-0.02,38.66,5.16,1.59,6.45,-48.63,-18.75,-1.38,-0.19,-1.37,8.0766
0.29,-0.22,0.1,-8.9,2.81,4.33,5.57,-47.17,-20.21,-0.63,-0.87,-1.77,8.1502
0.14,-0.22,0.17,-60.47,-3.45,-3.97,6.15,-46.58,-21.09,-0.79,-0.46,-1.51,8.2241
0.24,-0.48,0.03,-92.32,46.42,0.27,5.86,-46.29,-22.85,-1.11,-0.46,-1.52,8.2979
-0.02,-0.83,-0.23,-111.55,-15.24,-35.29,6.15,-46.58,-26.07,-1.29,0.03,-1.02,8.3717
0.33,-1.01,-0.38,-118.79,7.12,15.5,5.86,-45.41,-27.25,-1.11,-0.3,-1.31,8.4454
0.2,-1.5,-0.62,-74.87,-10.34,-35.96,5.57,-45.41,-29.59,-1.16,-0.12,-1.11,8.5191
0.13,-1.66,-0.55,-29.32,-71.56,-19.87,5.27,-45.12,-29.88,-1.24,-0.07,-1.05,8.5966
0.34,-1.9,-0.53,46.06,-65.62,-17.49,5.57,-44.53,-28.71,-1.25,-0.17,-1.16,8.6666
0.19,-1.7,-0.56,99.94,-61.55,38.55,5.57,-45.12,-25.78,-1.24,-0.11,-1.15,8.7403
0.16,-1.35,-0.37,139.6,-10.07,-13.03,6.45,-46.0,-24.02,-1.28,-0.11,-1.19,8.8178
0.08,-0.81,-0.18,98.19,-4.06,-14.33,6.45,-46.0,-22.56,-1.33,-0.1,-1.19,8.8916
0.14,-0.49,-0.07,84.81,4.56,5.56,5.57,-47.17,-20.8,-1.26,-0.28,-1.41,8.9615
0.06,-0.42,-0.12,42.05,-4.39,-14.65,5.27,-46.88,-20.21,-1.25,-0.15,-1.29,9.039
0.19,-0.29,-0.08,0.19,-3.14,-20.0,5.86,-48.05,-20.51,-0.95,-0.57,-1.64,9.1089
0.21,-0.17,0.04,-35.91,-14.25,3.4,5.27,-47.46,-20.21,-0.68,-0.87,-1.8,9.1829
0.17,-0.35,0.08,-82.02,-9.97,15.74,6.15,-46.88,-21.68,-1.07,-0.45,-1.53,9.2563
0.23,-0.59,-0.17,-109.58,16.85,-15.83,4.98,-46.88,-24.61,-1.12,-0.36,-1.42,9.334
0.27,-0.85,-0.45,-109.12,5.65,25.41,5.86,-45.7,-26.37,-1.02,-0.27,-1.3,9.4078
0.26,-1.19,-0.37,-112.79,-14.18,-14.71,5.57,-45.7,-28.71,-1.2,-0.21,-1.21,9.4814
0.13,-1.35,-0.6,-86.72,-7.16,-41.15,4.69,-44.53,-29.3,-1.14,-0.09,-1.08,9.5552
0.37,-2.0,-0.83,-12.34,-3.73,38.65,4.69,-44.82,-30.76,-1.14,-0.17,-1.14,9.6288
0.26,-1.89,-0.73,80.31,-1.46,5.39,4.69,-45.12,-29.3,-1.18,-0.13,-1.12,9.7025
0.26,-1.49,-0.56,127.88,7.2,-5.96,5.27,-46.0,-26.95,-1.17,-0.16,-1.2,9.7762
