,Ax,Ay,Az,Gx,Gy,Gz,Mx,My,Mz
1,0.21,0.99,-0.36,2.46,-2.56,0.23,-9.96,30.47,-24.61
2,0.26,1.31,-0.27,45.75,-52.3,31.19,-10.84,29.59,-26.66
3,-0.09,1.32,-0.35,-0.87,-43.83,-11.17,-11.13,29.59,-25.49
4,0.15,0.97,-0.69,-16.78,-2.72,-4.7,-11.72,29.88,-25.49
5,0.16,0.82,-0.56,-28.77,-7.71,13.79,-10.84,29.88,-24.32
6,0.2,0.7,-0.64,-27.75,26.28,-5.22,-11.43,29.88,-23.44
7,0.12,0.63,-0.56,-14.29,4.95,1.28,-10.25,30.76,-23.14
8,-0.01,0.44,-0.61,9.41,-13.66,-0.86,-10.55,31.05,-23.14
9,0.06,0.55,-0.66,19.79,-17.72,-12.63,-10.25,30.47,-23.44
10,0.18,0.92,-0.52,-9.15,-22.2,-11.67,-9.96,30.18,-22.56
11,0.03,0.89,-0.91,31.07,85.27,-64.43,-9.67,31.64,-24.61
12,0.09,1.4,-0.4,-35.1,213.98,-1.11,-10.25,31.64,-26.37
13,0.26,1.23,-0.64,-57.01,-53.2,44.88,-11.13,29.88,-25.2
14,0.27,0.98,-0.27,-12.35,33.45,-5.15,-9.96,29.88,-24.9
15,0.27,1.03,-0.37,-15.31,41.08,-2.1,-9.96,29.59,-25.2
16,0.18,1.04,-0.28,-16.95,2.14,4.01,-9.96,29.59,-24.9
17,0.24,0.98,-0.29,-15.12,-10.22,5.4,-9.67,29.59,-24.32
18,0.22,1.0,-0.2,-7.0,-0.09,1.46,-9.67,29.59,-23.73
19,0.32,0.99,-0.31,-3.06,5.96,0.85,-9.67,29.59,-24.32
20,0.25,1.0,-0.26,0.79,4.03,2.53,-9.67,29.88,-24.02
21,0.25,0.99,-0.14,10.91,-11.25,1.28,-9.38,29.59,-23.73
22,0.29,1.0,-0.24,9.23,-16.5,1.95,-9.67,29.3,-24.02
23,0.34,1.02,-0.31,10.22,-13.55,-1.53,-10.25,29.0,-24.32
24,0.28,1.01,-0.18,21.06,-21.77,-4.03,-10.25,29.59,-23.73
25,0.35,1.02,-0.14,41.99,4.16,-13.5,-10.25,29.88,-25.49
26,0.26,1.12,-0.22,88.01,-60.92,9.31,-11.13,30.18,-25.78
27,0.12,1.86,-0.13,29.5,-119.9,30.51,-11.13,29.59,-25.49
28,0.15,1.19,-0.89,-55.19,17.08,-18.23,-11.13,29.3,-24.02
29,0.38,0.84,-0.42,-53.96,19.29,-2.06,-10.84,29.88,-24.02
30,0.31,0.43,-0.89,-27.45,39.37,-9.69,-10.25,30.18,-22.27
31,0.09,0.46,-0.54,-16.83,4.68,-7.61,-9.96,31.64,-22.56
32,0.08,0.45,-0.51,15.35,-10.06,-5.66,-9.96,31.93,-22.27
33,0.08,0.68,-0.51,28.75,-23.67,-5.68,-9.96,31.93,-22.85
34,0.12,0.87,-0.52,29.21,-15.89,-7.71,-10.55,31.05,-23.14
35,0.16,1.01,-0.62,22.17,0.66,-0.17,-10.55,30.76,-23.14
36,0.2,1.03,-0.57,11.53,23.77,15.34,-10.55,29.88,-24.02
37,0.12,1.28,-0.38,48.7,64.29,-2.69,-10.84,29.88,-24.61
38,0.56,1.15,-0.14,-61.55,45.57,-0.5,-9.96,29.59,-24.61
39,-0.18,0.93,-0.04,-7.9,5.39,8.79,-10.25,30.18,-24.02
40,0.28,1.15,-0.35,-16.22,35.63,0.32,-9.96,29.88,-24.02
41,0.19,0.99,-0.27,-7.6,6.52,3.19,-9.38,29.88,-23.44
42,0.27,1.0,-0.27,-9.38,-15.96,5.4,-9.67,29.88,-23.44
43,0.26,1.03,-0.28,-10.54,-7.72,1.41,-9.96,29.0,-23.73
44,0.24,1.0,-0.25,-6.84,-1.23,-0.07,-9.67,29.59,-23.14
45,0.19,1.02,-0.24,0.37,0.29,-0.94,-9.67,29.88,-23.44
46,0.26,1.0,-0.15,9.39,-1.52,0.4,-9.38,29.3,-22.85
47,0.2,1.01,-0.27,8.42,-25.02,2.56,-9.67,29.3,-22.85
48,0.35,1.0,-0.29,8.84,-9.67,-4.96,-9.96,29.0,-22.56
49,0.12,0.99,-0.03,22.64,-15.66,-4.94,-9.96,29.59,-24.02
50,0.41,1.08,-0.24,64.87,-52.83,12.93,-10.55,29.88,-24.61
51,0.06,1.56,-0.26,83.96,-2.75,1.67,-11.13,29.59,-25.2
52,0.15,1.42,-0.29,-79.37,-100.25,11.86,-10.84,28.71,-22.85
53,-0.03,0.76,-1.4,35.02,-4.92,9.9,-10.84,29.3,-23.14
54,-0.01,0.78,-0.56,-70.66,49.42,-29.25,-10.84,30.18,-21.09
55,0.05,0.71,-0.36,-52.25,21.86,-15.66,-9.67,30.76,-21.68
56,0.19,0.55,-0.44,-30.13,13.76,-13.73,-9.38,30.76,-20.8
57,0.1,0.4,-0.47,4.81,-0.75,-11.09,-9.96,31.35,-20.8
58,0.09,0.48,-0.43,29.64,-24.73,6.84,-9.67,30.76,-20.8
59,0.07,0.55,-0.6,53.67,-44.4,4.82,-10.55,30.18,-21.68
60,0.39,1.12,-0.56,35.84,5.15,0.63,-10.55,30.47,-22.56
61,0.17,1.24,-0.59,39.56,32.46,1.89,-10.84,30.18,-24.02
62,0.12,1.41,-0.41,29.68,83.84,-0.98,-10.55,29.88,-24.9
63,0.25,1.18,-0.05,-60.38,25.62,8.66,-9.67,29.3,-24.32
64,0.21,1.09,-0.3,-2.08,84.72,-13.6,-9.96,29.59,-24.02
65,0.3,1.11,-0.28,-16.43,17.25,-0.42,-9.67,29.88,-24.02
66,0.31,1.04,-0.25,-5.99,22.48,1.1,-9.08,30.18,-23.73
67,0.2,0.99,-0.22,-1.4,-16.79,4.49,-9.67,29.88,-23.73
68,0.32,1.02,-0.28,-5.86,-29.62,9.87,-9.08,28.71,-23.14
69,0.33,1.04,-0.12,-5.48,3.65,-1.77,-9.96,28.71,-22.27
70,0.18,1.02,-0.04,5.94,-8.12,-0.4,-9.38,29.88,-23.14
71,0.19,1.0,-0.35,3.57,-4.37,-2.16,-9.67,29.3,-22.27
72,0.25,1.0,-0.15,9.77,-6.03,-0.19,-9.08,29.0,-23.14
73,0.17,1.03,-0.13,12.41,-39.79,0.02,-9.67,29.59,-23.14
74,0.21,1.0,-0.23,32.45,-30.36,-4.76,-9.08,29.59,-23.14
75,0.55,1.07,-0.07,70.35,-6.52,-13.12,-9.67,29.88,-24.9
76,-0.22,1.66,-0.37,83.58,-10.89,18.77,-10.25,29.0,-25.49
77,0.29,1.37,-0.32,-75.49,-64.67,24.93,-10.84,28.12,-23.44
78,0.22,0.9,-1.21,15.05,5.4,2.03,-10.55,28.71,-23.44
79,0.05,0.79,-0.7,-46.55,47.84,-14.95,-10.25,30.18,-21.97
80,0.04,0.86,-0.33,-70.79,20.76,-10.79,-10.25,30.18,-21.09
81,0.17,0.52,-0.54,-40.41,4.46,3.5,-9.67,30.47,-19.63
82,0.13,0.35,-0.42,-5.8,-13.29,-5.1,-9.67,30.76,-20.21
83,0.09,0.54,-0.42,36.25,-27.98,-1.21,-9.96,29.88,-20.51
84,0.2,0.72,-0.48,44.59,-18.68,-20.81,-10.25,29.88,-20.51
85,0.22,0.85,-0.6,25.25,-35.84,13.15,-9.67,29.3,-21.97
86,0.27,1.21,-0.61,46.28,31.48,1.86,-10.25,29.59,-23.44
87,0.05,1.38,-0.42,5.22,81.55,-6.75,-10.55,29.3,-24.61
88,-0.23,2.0,0.74,-0.22,79.87,-12.89,-9.38,29.3,-24.32
89,0.05,0.75,-0.42,-50.19,-48.53,11.71,-9.96,29.0,-23.73
90,0.48,0.94,-0.3,-2.82,43.29,-3.64,-9.38,29.3,-24.02
91,0.26,0.99,-0.37,-18.83,42.92,-11.33,-9.08,30.18,-23.44
92,0.18,1.01,-0.12,-8.51,-10.78,-0.96,-9.38,29.59,-23.14
93,0.25,0.98,-0.31,1.36,7.9,-0.56,-9.08,30.18,-22.85
94,0.18,1.02,-0.19,-4.29,14.01,-2.82,-8.5,29.88,-22.85
95,0.19,1.02,-0.18,-1.39,-2.4,-0.47,-8.79,29.3,-22.27
96,0.16,1.01,-0.19,-0.21,-16.44,2.21,-9.38,29.88,-22.56
97,0.22,1.04,-0.17,3.6,-18.11,0.61,-8.79,29.59,-22.56
98,0.29,1.02,-0.24,5.71,-21.6,-1.47,-8.79,29.59,-22.56
99,0.2,0.99,-0.16,17.68,-12.74,-4.56,-9.38,29.59,-23.14
100,0.5,0.99,-0.06,35.16,19.66,-10.16,-9.38,29.59,-23.44
101,0.21,1.17,0.04,84.34,-20.81,29.35,-10.25,30.47,-24.9
102,0.07,1.79,-0.12,55.5,-105.73,33.68,-11.43,29.0,-24.9
103,0.2,1.3,-0.59,-57.27,-46.74,34.54,-11.13,28.12,-23.73
104,0.57,0.74,-0.56,-30.6,16.32,1.01,-10.84,29.0,-23.14
105,0.23,0.58,-0.62,-42.53,36.79,-13.39,-10.55,30.18,-23.44
106,0.11,0.61,-0.36,-38.28,6.58,-2.49,-10.55,30.18,-21.97
107,0.07,0.34,-0.53,7.39,-5.86,-4.43,-10.25,30.47,-21.68
108,0.06,0.42,-0.55,32.38,-33.62,7.03,-10.25,29.59,-22.27
109,0.18,0.7,-0.67,35.83,-40.1,0.79,-10.55,29.59,-22.27
110,0.11,0.98,-0.83,26.36,26.99,-23.06,-9.96,29.88,-23.73
111,0.23,1.52,-0.69,94.87,117.38,-6.7,-9.96,29.0,-25.2
112,0.12,1.62,0.21,-30.56,28.05,-33.09,-10.25,30.18,-25.2
113,-0.06,0.61,-0.39,-21.17,-1.83,-5.58,-9.67,29.3,-24.9
114,0.59,1.0,-0.37,-14.65,89.78,-11.95,-9.67,29.59,-24.32
115,0.15,1.02,-0.25,-25.96,-11.13,5.29,-9.67,29.88,-23.44
116,0.28,0.96,-0.16,-11.41,-20.75,2.58,-9.38,29.88,-23.14
117,0.34,0.99,-0.17,3.94,-4.54,2.4,-9.38,29.88,-22.85
118,0.24,1.02,-0.27,0.21,-15.76,2.53,-9.08,29.3,-23.14
119,0.23,1.0,-0.18,7.99,-12.4,2.66,-9.38,29.3,-23.44
120,0.27,1.01,-0.23,11.32,-20.0,2.11,-9.38,29.3,-23.44
121,0.27,1.01,-0.2,16.41,-22.83,1.61,-9.67,28.71,-23.73
122,0.23,1.0,-0.26,26.5,-29.53,1.9,-10.25,29.0,-23.73
123,0.54,1.05,-0.01,62.68,-28.22,7.73,-10.55,28.42,-24.9
124,-0.19,1.79,0.01,58.69,-116.48,14.65,-11.72,28.42,-25.49
125,0.06,1.3,-0.26,-78.8,-91.07,-4.43,-12.01,28.12,-24.02
126,-0.06,0.74,-1.55,77.31,91.01,-47.55,-11.13,29.3,-24.61
127,-0.22,0.74,-0.77,-58.78,48.92,-32.45,-10.55,29.88,-22.85
128,-0.01,0.62,-0.46,-46.81,17.24,-0.49,-10.55,30.47,-21.97
129,0.2,0.39,-0.61,-16.15,5.64,5.1,-9.96,30.18,-21.39
130,0.02,0.41,-0.48,4.53,-10.98,-6.55,-10.55,30.47,-21.39
131,0.1,0.68,-0.56,15.52,-40.22,6.11,-10.25,29.88,-21.09
132,0.16,0.89,-0.72,22.5,-14.43,-8.22,-10.25,29.0,-21.39
133,0.19,1.16,-0.56,12.5,51.45,-7.17,-10.55,29.0,-22.85
134,0.57,1.56,-0.5,-78.0,13.11,-9.87,-9.96,29.59,-23.44
135,-0.28,1.34,-0.02,-16.47,53.93,-1.98,-9.38,30.47,-23.14
136,0.19,1.13,-0.09,-22.53,-17.27,2.27,-9.67,29.59,-22.85
137,0.17,1.0,-0.27,-2.62,24.25,1.33,-9.08,30.18,-22.56
138,0.33,1.05,-0.33,-16.27,8.18,-0.27,-9.96,30.47,-22.56
139,0.21,1.0,-0.14,-1.2,-5.35,2.11,-9.08,29.59,-22.56
140,0.22,1.02,-0.26,-1.66,-12.91,3.33,-9.08,29.0,-21.68
141,0.24,1.0,-0.25,-6.72,-7.43,1.66,-9.08,29.59,-22.27
142,0.17,1.01,-0.19,-5.05,-11.2,1.97,-8.79,28.71,-21.68
143,0.15,1.02,-0.13,4.39,-14.1,1.54,-9.38,29.3,-21.97
144,0.2,1.03,-0.14,12.32,-29.2,0.32,-9.67,29.0,-22.27
145,0.26,1.03,-0.29,8.77,-25.39,-3.81,-9.08,29.3,-22.56
146,0.28,1.01,-0.08,26.95,-2.01,-10.9,-9.96,29.3,-22.27
147,0.44,1.14,0.32,80.57,2.27,-3.76,-10.25,29.59,-23.73
148,-0.29,1.85,0.07,61.36,-127.62,29.07,-11.13,28.71,-23.73
149,0.52,1.45,-0.57,-54.13,-13.93,2.49,-11.13,28.71,-22.85
150,0.32,0.78,-0.62,-31.9,26.36,0.92,-10.84,29.59,-22.85
151,0.24,0.6,-0.76,-33.42,47.19,-0.4,-10.55,31.05,-22.27
152,-0.06,0.53,-0.39,-48.17,15.35,-14.41,-9.67,31.05,-21.39
153,0.08,0.27,-0.55,0.57,1.24,-6.76,-9.96,31.05,-21.68
154,0.08,0.57,-0.48,27.09,-24.23,-2.69,-9.96,30.76,-21.09
155,0.07,0.67,-0.57,34.81,-33.88,-13.34,-10.25,30.18,-21.68
156,0.19,1.04,-0.73,47.0,9.74,-11.92,-10.55,29.88,-22.85
157,0.23,1.19,-0.59,28.35,50.9,1.27,-10.84,29.88,-24.61
158,-0.06,1.69,-0.1,-101.37,-66.31,23.39,-9.96,29.59,-24.32
159,0.6,1.37,-0.3,2.01,118.27,-9.29,-9.67,29.88,-23.73
160,0.17,1.02,0.14,-23.36,4.97,5.29,-9.38,29.3,-22.85
161,0.06,1.01,-0.16,-7.15,-18.88,2.59,-9.96,29.3,-23.44
162,0.39,0.98,-0.37,-14.47,8.45,-1.41,-9.96,29.88,-23.14
163,0.22,1.03,-0.18,-9.57,6.47,0.94,-9.08,29.59,-22.27
164,0.21,1.03,-0.08,-3.26,-5.69,2.67,-9.08,29.88,-22.56
165,0.2,1.03,-0.24,-2.95,-16.98,3.4,-9.08,29.59,-22.56
166,0.23,1.03,-0.17,-0.63,-16.43,3.52,-9.38,29.3,-21.68
167,0.26,1.0,-0.08,12.05,-11.38,1.69,-8.79,29.3,-21.97
168,0.15,1.03,-0.27,9.42,-28.34,0.24,-9.38,29.0,-22.56
169,0.33,1.04,-0.3,6.6,-2.99,-5.42,-9.38,29.88,-22.85
170,0.26,1.0,-0.07,22.19,-24.35,-4.8,-9.67,29.3,-22.85
171,0.38,1.05,-0.03,59.26,2.37,-6.14,-9.96,29.59,-23.73
172,0.04,1.33,-0.15,88.99,-119.53,20.58,-10.84,29.3,-24.61
173,0.21,1.82,-0.29,-23.31,-121.31,43.13,-11.72,27.54,-23.44
174,0.06,0.73,-1.43,48.84,96.93,-37.38,-11.13,29.3,-23.44
175,-0.0,0.72,-0.49,-63.51,39.46,-43.45,-11.13,30.18,-22.56
176,0.06,0.53,-0.46,-38.93,18.81,-11.71,-10.25,31.05,-22.56
177,0.11,0.44,-0.47,-14.2,-1.25,-1.64,-10.25,30.76,-21.68
178,0.05,0.36,-0.55,21.17,-18.55,2.81,-9.96,30.76,-21.39
179,0.26,0.65,-0.48,6.26,-38.06,6.21,-9.96,29.88,-21.68
180,0.22,0.9,-0.62,36.0,-22.87,4.36,-10.55,29.0,-22.56
181,0.15,1.19,-0.7,51.48,14.76,-16.46,-11.13,29.0,-24.32
182,0.12,1.31,-0.44,48.95,44.08,2.8,-10.84,29.3,-25.49
183,0.4,1.46,-0.35,-36.98,56.97,2.54,-10.25,28.71,-24.32
184,-0.02,1.61,-0.05,5.2,59.05,-3.22,-9.96,29.88,-24.32
185,0.19,1.1,-0.28,-18.96,9.92,5.52,-10.55,29.88,-24.32
186,0.28,1.03,-0.21,-11.38,10.31,-1.4,-9.96,29.0,-23.14
187,0.24,1.02,-0.28,-16.53,1.8,0.63,-9.96,29.0,-23.14
188,0.25,1.04,-0.23,-3.86,20.71,-3.36,-9.67,29.88,-22.85
189,0.17,1.0,-0.25,-11.28,-3.68,0.94,-9.67,29.88,-22.85
190,0.24,1.02,-0.13,3.43,-0.2,-0.48,-8.79,29.3,-22.85
191,0.2,0.98,-0.3,-0.17,-7.63,-0.99,-9.67,29.0,-22.85
192,0.24,1.01,-0.27,-1.56,-6.4,-4.58,-9.38,29.0,-22.27
193,0.22,1.02,-0.15,2.07,-27.12,-3.85,-9.38,29.0,-21.97
194,0.3,1.03,-0.26,3.9,-15.08,-7.81,-9.08,29.3,-22.27
195,0.35,1.02,-0.18,11.67,21.34,-15.79,-9.08,29.0,-22.85
196,0.11,1.05,-0.3,0.21,-15.39,-7.48,-9.38,29.3,-23.14
197,0.14,1.02,-0.35,-12.08,-3.36,-13.48,-8.5,29.0,-22.56
198,0.23,1.03,-0.05,2.07,-6.98,-3.54,-8.79,30.18,-22.27
199,0.09,1.1,-0.11,6.81,-15.7,-7.11,-8.79,29.59,-21.97
200,0.19,1.01,-0.3,7.61,-1.88,-0.24,-8.5,29.59,-21.97
201,0.16,1.02,-0.23,6.59,-0.01,-0.35,-8.79,30.18,-21.97
202,0.17,1.03,-0.23,5.83,-0.83,-0.68,-8.5,29.88,-22.56
203,0.15,1.03,-0.23,4.0,-3.14,0.36,-9.08,29.88,-22.27
204,0.18,1.02,-0.26,3.41,4.62,-0.92,-8.79,30.47,-23.14
205,0.16,1.03,-0.26,4.33,4.68,0.06,-9.08,29.59,-22.27
206,0.2,1.02,-0.22,4.18,-0.16,0.85,-8.5,29.88,-22.85
207,0.2,1.03,-0.28,3.31,-1.5,0.59,-9.38,29.88,-23.44
208,0.18,1.03,-0.27,1.46,-2.49,0.32,-9.38,30.18,-22.85
209,0.19,1.03,-0.23,2.36,-2.11,0.43,-9.08,30.18,-22.27
210,0.18,1.01,-0.24,3.1,-2.32,0.8,-8.79,29.59,-22.85
211,0.18,1.02,-0.27,2.8,-2.4,-0.23,-9.96,29.59,-23.14
212,0.16,1.02,-0.26,1.67,-5.72,-0.37,-8.79,29.3,-23.14
213,0.19,1.02,-0.24,1.71,-2.1,-0.52,-9.38,29.59,-22.85
214,0.18,1.02,-0.25,2.22,-0.06,-0.32,-8.79,29.88,-22.85
215,0.18,1.02,-0.25,2.4,0.38,-0.46,-9.08,29.88,-22.85
216,0.17,1.01,-0.25,1.51,0.03,-0.09,-9.08,29.59,-22.56
217,0.18,1.02,-0.26,0.44,-2.19,-0.22,-9.08,29.59,-22.27
218,0.19,1.02,-0.23,1.22,-0.32,0.37,-8.79,29.59,-22.56
219,0.17,1.02,-0.25,1.33,-0.43,-0.72,-9.08,29.3,-22.56
220,0.17,1.02,-0.24,2.24,-0.53,0.03,-8.79,30.18,-22.27
221,0.17,1.02,-0.24,3.01,-3.04,0.64,-8.79,29.59,-22.27
222,0.17,1.02,-0.23,3.11,0.35,-0.08,-8.5,29.88,-22.56
223,0.18,1.02,-0.25,2.7,-1.82,-0.06,-9.08,29.88,-22.27
224,0.2,1.02,-0.24,2.49,0.28,0.27,-9.08,29.3,-23.14
225,0.2,1.02,-0.24,2.31,-1.89,-0.14,-9.08,29.88,-22.56
226,0.2,1.02,-0.23,2.78,-0.53,0.17,-9.08,29.59,-22.56
227,0.18,1.02,-0.24,2.85,-1.9,-0.08,-9.08,30.47,-22.27
228,0.18,1.02,-0.23,2.82,-0.08,-0.74,-8.79,29.88,-22.56
229,0.16,1.02,-0.23,3.0,-3.72,0.05,-9.08,29.59,-22.27
230,0.19,1.02,-0.23,3.82,-0.13,-1.09,-9.08,29.88,-21.68
231,0.18,1.02,-0.24,3.43,-1.14,-1.01,-9.38,30.18,-22.85
232,0.19,1.02,-0.24,4.18,-0.03,-0.76,-9.08,29.3,-22.56
233,0.17,1.02,-0.26,3.91,-0.4,-1.36,-9.08,29.88,-22.56
234,0.17,1.02,-0.24,2.85,-3.11,-0.48,-9.08,29.3,-22.85
235,0.17,1.02,-0.26,2.45,-2.4,-0.49,-9.38,29.59,-22.56
236,0.19,1.02,-0.23,3.71,-2.72,0.2,-9.08,29.59,-22.56
237,0.18,1.02,-0.24,3.07,-2.14,-0.38,-9.08,30.18,-22.85
238,0.18,1.02,-0.25,3.67,-1.95,-0.63,-8.5,29.59,-22.85
239,0.17,1.02,-0.25,3.1,-2.7,0.08,-9.08,29.88,-22.27
240,0.17,1.02,-0.25,3.23,-2.91,0.1,-8.79,29.59,-22.85
241,0.17,1.02,-0.25,3.2,-3.05,0.24,-9.08,29.0,-23.14
242,0.17,1.01,-0.26,3.46,-1.75,-0.68,-9.38,29.59,-22.27
243,0.18,1.02,-0.24,4.63,-1.67,0.24,-9.67,29.88,-22.27
244,0.17,1.02,-0.26,3.7,-1.98,-0.16,-9.08,30.18,-22.85
245,0.18,1.02,-0.26,2.47,-0.72,-0.21,-8.79,29.88,-22.56
246,0.18,1.02,-0.26,3.03,-2.72,0.08,-9.08,30.18,-22.56
247,0.17,1.02,-0.26,2.15,-1.85,0.46,-9.08,29.88,-22.85
248,0.17,1.02,-0.25,1.94,-3.04,0.17,-9.08,29.59,-22.85
249,0.19,1.02,-0.26,1.83,-1.31,-0.02,-9.67,29.59,-23.14
250,0.18,1.02,-0.23,1.27,-1.1,-0.21,-8.79,29.59,-22.85
251,0.18,1.02,-0.27,3.3,-1.75,-0.05,-9.08,29.3,-23.14
252,0.18,1.02,-0.26,3.15,-2.17,0.25,-9.08,30.18,-22.27
253,0.19,1.02,-0.25,3.01,-3.78,0.12,-9.67,29.88,-23.14
254,0.18,1.02,-0.26,2.19,-1.47,-0.25,-8.79,29.3,-22.56
255,0.19,1.02,-0.25,2.94,-2.34,-0.02,-8.79,30.18,-22.85
256,0.19,1.02,-0.26,2.81,-1.13,0.02,-8.79,29.3,-22.85
257,0.19,1.02,-0.26,3.07,-0.93,-0.4,-9.96,29.3,-22.85
258,0.19,1.02,-0.26,2.93,-0.78,-0.21,-9.08,29.59,-22.85
259,0.18,1.02,-0.24,3.36,-0.73,-0.18,-9.08,29.88,-23.73
260,0.18,1.02,-0.27,2.6,-1.12,-0.27,-8.79,29.59,-23.14
261,0.18,1.02,-0.26,2.25,-0.82,-0.53,-9.38,29.59,-23.14
262,0.18,1.02,-0.26,1.91,-1.19,-0.62,-9.08,29.59,-23.14
263,0.18,1.02,-0.25,2.07,-1.39,-0.22,-9.38,29.59,-22.56
264,0.18,1.02,-0.26,2.13,-0.64,-0.46,-9.08,30.18,-22.56
265,0.18,1.02,-0.26,2.58,-1.25,-0.02,-9.08,29.59,-22.56
266,0.18,1.02,-0.25,2.2,-1.83,-0.06,-9.08,30.18,-21.97
267,0.18,1.02,-0.26,2.78,-0.33,-0.16,-9.08,29.3,-23.14
268,0.18,1.02,-0.24,2.83,-0.73,0.02,-9.08,30.18,-22.56
269,0.18,1.02,-0.26,2.77,-0.16,-0.26,-9.38,30.47,-22.85
270,0.18,1.02,-0.26,2.91,-1.44,-0.41,-9.08,29.3,-22.85
271,0.18,1.02,-0.26,2.5,-1.75,-0.26,-9.08,29.3,-22.85
272,0.18,1.02,-0.25,2.49,-1.97,-0.28,-9.08,29.59,-22.85
273,0.19,1.02,-0.25,2.0,-1.98,-0.31,-8.79,29.3,-22.56
274,0.18,1.02,-0.24,2.39,-2.13,0.26,-9.38,29.3,-22.27
275,0.18,1.02,-0.25,2.57,-1.12,0.09,-9.08,30.76,-22.56
276,0.18,1.01,-0.27,2.51,-2.9,0.09,-9.08,29.88,-22.56
277,0.19,1.02,-0.25,2.51,-2.98,0.6,-9.38,29.59,-22.56
278,0.19,1.02,-0.25,3.01,-2.39,-0.01,-8.79,29.88,-22.56
279,0.18,1.02,-0.25,2.71,-2.46,0.43,-9.08,29.59,-22.85
280,0.19,1.02,-0.24,3.29,-0.79,0.13,-9.08,29.0,-22.85
281,0.18,1.02,-0.25,2.62,-1.53,-0.17,-9.08,29.59,-22.27
282,0.18,1.02,-0.26,2.37,-2.33,-0.35,-8.79,29.3,-22.85
283,0.19,1.02,-0.25,2.94,-2.53,-0.16,-9.38,29.3,-22.85
284,0.18,1.01,-0.26,2.82,-0.44,-0.42,-9.38,29.88,-22.56
285,0.18,1.02,-0.26,2.62,-1.55,-0.53,-9.08,29.3,-22.56
286,0.19,1.02,-0.25,2.89,-2.03,-0.18,-9.67,29.3,-22.85
287,0.18,1.01,-0.25,3.05,-0.57,-0.24,-9.67,29.3,-22.56
288,0.18,1.02,-0.26,2.84,-0.4,-0.69,-9.08,29.3,-22.56
289,0.18,1.02,-0.25,2.65,-2.6,-0.16,-9.67,29.3,-22.85
290,0.18,1.02,-0.26,2.4,-1.85,-0.67,-9.08,29.88,-22.56
291,0.19,1.02,-0.26,2.27,-2.13,-0.58,-9.67,29.3,-22.56
292,0.18,1.02,-0.25,2.59,-1.35,-0.67,-9.38,29.59,-22.85
293,0.18,1.02,-0.25,2.82,-2.03,-0.69,-9.08,29.3,-22.27
294,0.18,1.02,-0.26,2.47,-1.43,-0.98,-8.79,30.18,-22.85
295,0.18,1.02,-0.25,2.92,-2.08,-0.56,-9.38,29.88,-22.27
296,0.17,1.01,-0.27,2.31,-1.36,-0.63,-9.38,29.3,-22.56
297,0.18,1.02,-0.26,2.65,-1.24,-0.59,-9.38,29.59,-22.85
298,0.18,1.02,-0.25,2.84,-1.46,-0.38,-9.38,29.3,-22.56
299,0.18,1.02,-0.26,2.95,-1.59,-0.35,-9.08,29.3,-22.85
300,0.18,1.02,-0.25,3.15,-0.64,-0.26,-9.08,29.59,-23.14
301,0.18,1.02,-0.25,3.11,-0.71,-0.3,-9.08,29.59,-22.85
302,0.18,1.02,-0.27,2.26,-3.43,0.37,-8.79,29.59,-22.27
303,0.17,1.01,-0.26,1.95,-4.13,0.4,-9.08,29.88,-22.56
304,0.19,1.02,-0.26,2.15,-3.2,0.61,-9.38,29.3,-21.97
305,0.18,1.02,-0.25,2.34,-1.59,0.31,-9.38,29.3,-22.85
306,0.2,1.02,-0.25,3.26,-1.68,-0.24,-9.38,29.59,-22.56
307,0.18,1.02,-0.26,3.18,-0.31,-0.57,-8.79,29.59,-22.27
308,0.18,1.02,-0.24,3.65,-0.61,-0.38,-9.38,29.59,-22.56
309,0.18,1.02,-0.26,2.85,-3.03,0.76,-9.67,29.59,-22.56
310,0.18,1.02,-0.28,0.38,-3.6,0.11,-8.79,29.3,-22.56
311,0.19,1.02,-0.24,2.69,-1.55,0.01,-8.79,29.88,-22.85
312,0.18,1.02,-0.25,3.14,0.89,-0.84,-9.08,29.59,-22.85
313,0.18,1.02,-0.26,2.93,-0.44,-0.74,-9.08,29.59,-22.56
314,0.17,1.02,-0.26,2.67,-2.08,-0.23,-9.08,29.59,-22.85
315,0.19,1.02,-0.26,2.61,-0.03,-0.79,-9.38,29.88,-22.56
316,0.19,1.01,-0.24,2.71,-0.74,-0.39,-9.08,29.59,-22.56
317,0.18,1.02,-0.28,1.33,-1.28,-0.36,-9.38,29.59,-23.14
318,0.18,1.02,-0.25,2.66,-3.51,-0.11,-9.08,29.59,-22.27
319,0.18,1.02,-0.25,3.11,-1.46,-0.3,-9.38,29.3,-22.85
320,0.19,1.02,-0.25,2.53,-1.64,-0.46,-8.79,29.59,-22.56
321,0.18,1.02,-0.25,3.04,-2.3,-0.01,-9.08,29.88,-22.85
322,0.19,1.01,-0.27,2.37,-1.2,-0.4,-9.38,29.59,-21.97
323,0.18,1.01,-0.28,2.59,-1.56,-0.53,-9.38,30.18,-22.27
324,0.18,1.02,-0.25,3.18,-1.19,-0.28,-9.38,29.59,-21.68
325,0.18,1.02,-0.26,1.89,-1.34,-0.33,-8.79,29.88,-22.56
326,0.18,1.02,-0.26,2.53,-2.32,-0.54,-9.08,29.59,-22.85
327,0.18,1.02,-0.25,2.91,-1.85,-0.45,-8.79,29.0,-21.97
328,0.18,1.02,-0.24,1.52,-0.88,-0.28,-8.79,29.3,-23.14
329,0.19,1.02,-0.26,2.83,-1.96,-0.14,-8.79,29.59,-22.56
330,0.18,1.02,-0.25,2.52,-1.17,-0.1,-9.38,29.59,-23.44
331,0.18,1.02,-0.25,2.58,-1.58,-0.52,-9.08,29.3,-22.85
332,0.19,1.02,-0.25,3.07,-0.81,-0.53,-8.79,29.88,-22.27
333,0.18,1.02,-0.26,3.04,-2.6,-0.27,-8.79,29.0,-22.85
334,0.18,1.02,-0.25,2.88,-1.31,-0.16,-8.79,29.88,-22.85
335,0.18,1.02,-0.25,2.27,-0.81,-0.32,-9.08,29.59,-22.56
336,0.17,1.02,-0.26,3.1,-1.56,-0.53,-8.79,29.59,-22.85
337,0.18,1.02,-0.24,3.23,-1.6,-0.55,-9.08,29.88,-22.56
338,0.17,1.02,-0.26,2.14,-2.25,-0.42,-9.38,29.0,-22.27
339,0.18,1.02,-0.26,2.71,-1.38,-0.73,-8.79,30.18,-21.97
340,0.17,1.02,-0.25,3.07,-1.63,-0.81,-9.38,29.3,-23.14
341,0.17,1.02,-0.26,3.01,-1.21,-0.28,-9.38,29.59,-22.56
342,0.17,1.02,-0.26,2.31,-3.59,0.0,-8.79,29.3,-22.56
343,0.18,1.02,-0.26,2.83,-2.67,0.1,-8.79,29.3,-22.56
344,0.18,1.02,-0.26,2.96,-2.25,-0.03,-9.08,29.88,-22.56
345,0.18,1.02,-0.25,2.85,-1.74,-0.24,-9.08,29.59,-22.56
346,0.17,1.02,-0.25,2.74,-1.67,-0.27,-8.79,29.88,-22.56
347,0.18,1.02,-0.26,2.53,-1.54,-0.14,-9.38,29.59,-22.56
348,0.18,1.02,-0.26,3.17,-1.66,0.09,-9.08,30.18,-22.27
349,0.18,1.02,-0.26,2.9,-0.37,-0.66,-9.08,29.59,-22.27
350,0.18,1.02,-0.25,3.41,-1.37,0.02,-9.08,30.18,-22.27
351,0.18,1.02,-0.27,2.84,-1.34,-0.13,-9.08,29.3,-22.85
352,0.18,1.01,-0.26,2.94,-1.72,0.0,-9.38,29.59,-22.85
353,0.18,1.02,-0.26,2.94,-2.11,0.08,-9.08,29.59,-22.56
354,0.18,1.02,-0.26,3.12,-1.48,-0.03,-8.79,29.3,-22.27
355,0.18,1.02,-0.26,3.25,-1.0,0.02,-9.08,29.3,-22.85
356,0.18,1.01,-0.27,3.19,-2.33,0.35,-9.38,29.59,-22.85
357,0.18,1.02,-0.27,2.74,-1.85,0.3,-9.67,29.3,-21.97
358,0.18,1.02,-0.26,3.3,-1.6,0.2,-8.79,29.88,-23.44
359,0.18,1.02,-0.25,3.91,-0.26,0.02,-9.67,29.88,-23.73
360,0.17,1.02,-0.27,2.66,-1.63,-0.23,-9.38,29.3,-23.14
361,0.18,1.02,-0.27,2.54,-2.86,0.04,-9.08,29.88,-22.56
362,0.18,1.02,-0.27,2.4,-2.11,-0.23,-9.38,29.88,-22.27
363,0.17,1.02,-0.26,3.12,-0.16,-1.08,-9.67,29.88,-22.85
364,0.18,1.01,-0.27,3.33,1.0,-0.69,-9.08,29.59,-22.27
365,0.17,1.02,-0.26,3.01,-0.56,-0.76,-8.79,29.88,-22.85
366,0.18,1.02,-0.26,2.61,-2.11,-0.39,-9.38,29.0,-22.56
367,0.17,1.02,-0.27,2.08,-4.46,0.11,-9.38,29.3,-22.85
368,0.18,1.02,-0.25,2.46,-2.4,-0.56,-9.08,29.59,-22.85
369,0.18,1.02,-0.27,3.4,-0.14,-0.77,-9.08,29.0,-22.56
370,0.18,1.02,-0.27,2.86,-1.48,-0.23,-9.08,29.59,-22.85
371,0.17,1.02,-0.27,1.94,-4.94,-0.14,-9.38,29.59,-22.85
372,0.17,1.02,-0.27,1.49,-3.32,-0.82,-9.38,29.59,-22.56
373,0.17,1.02,-0.26,2.15,-2.44,-0.89,-9.38,29.3,-22.56
374,0.17,1.02,-0.25,3.21,-0.53,-0.84,-9.38,29.88,-22.85
375,0.17,1.02,-0.27,3.36,-0.08,-0.33,-9.38,29.3,-23.44
376,0.17,1.02,-0.27,2.64,-2.61,-0.57,-8.79,29.59,-22.56
377,0.17,1.02,-0.26,2.65,-3.4,0.28,-9.38,29.59,-22.27
378,0.18,1.02,-0.27,2.59,-2.38,-0.19,-8.79,29.88,-22.56
379,0.17,1.02,-0.27,2.78,-1.27,-0.21,-9.08,29.88,-21.97
380,0.18,1.02,-0.26,2.82,-1.77,-0.15,-8.79,29.3,-22.85
381,0.17,1.02,-0.26,3.18,-0.89,-0.38,-9.08,28.71,-23.14
382,0.17,1.02,-0.26,3.43,0.2,-0.69,-9.38,29.59,-22.85
383,0.17,1.02,-0.27,3.53,-0.34,-0.34,-9.08,29.88,-22.85
384,0.17,1.02,-0.28,3.18,-0.92,-0.11,-8.79,29.3,-23.14
385,0.17,1.02,-0.27,2.92,-2.71,-0.17,-9.08,29.3,-22.85
386,0.17,1.02,-0.27,2.66,-2.59,-0.16,-9.38,29.88,-22.85
387,0.18,1.02,-0.27,2.72,-1.83,-0.1,-9.08,29.59,-23.14
388,0.17,1.01,-0.27,2.56,-2.14,0.02,-9.67,29.88,-22.56
389,0.17,1.02,-0.26,2.38,-2.57,-0.08,-9.67,29.88,-22.56
390,0.18,1.02,-0.26,2.27,-1.71,-0.17,-9.38,29.59,-23.44
391,0.18,1.02,-0.26,2.67,-0.72,-0.46,-9.67,29.59,-22.56
392,0.18,1.02,-0.27,3.52,1.22,-0.76,-9.38,29.59,-23.14
393,0.17,1.02,-0.29,2.14,-1.21,-0.11,-9.38,29.88,-23.14
394,0.17,1.02,-0.27,2.19,-3.59,0.05,-9.38,29.0,-22.85
395,0.17,1.01,-0.27,3.17,-1.59,0.45,-9.08,29.59,-23.14
396,0.18,1.02,-0.27,3.44,-0.1,-0.14,-9.38,30.18,-22.27
397,0.16,1.01,-0.28,2.97,-2.7,0.2,-9.38,29.59,-23.44
