Ax,Ay,Az,Gx,Gy,Gz,Mx,My,MZ,Roll,Pitch,Yaw,Time
0.72,0.85,-0.08,2.74,-0.16,-0.27,-18.16,-28.71,-7.62,0.86,-0.7,-1.65,0.0008
0.73,0.84,-0.08,2.93,-0.36,-0.6,-18.16,-28.71,-7.62,0.85,-0.71,-1.65,0.0011
0.72,0.85,-0.09,2.8,-1.31,-1.39,-18.16,-28.12,-7.91,0.86,-0.7,-1.67,0.0013
0.7,0.85,-0.07,2.49,-0.4,-0.73,-17.58,-28.12,-8.2,0.88,-0.69,-1.66,0.0015
0.72,0.85,-0.09,2.56,-0.43,-0.37,-17.29,-28.42,-8.2,0.87,-0.7,-1.65,0.0018
0.75,0.83,-0.08,2.43,-2.69,-2.19,-18.16,-28.12,-7.03,0.84,-0.73,-1.65,0.002
0.71,0.85,-0.09,2.13,-3.89,-2.78,-17.87,-28.12,-7.91,0.87,-0.69,-1.66,0.0022
0.69,0.85,-0.07,2.76,-1.29,-0.27,-17.87,-28.42,-7.91,0.89,-0.68,-1.65,0.0025
0.7,0.85,-0.08,3.4,1.23,0.76,-17.58,-28.42,-7.32,0.87,-0.69,-1.63,0.0027
0.73,0.84,-0.09,3.16,0.43,0.37,-18.46,-28.71,-7.91,0.85,-0.71,-1.66,0.0029
0.72,0.85,-0.1,2.69,-0.8,-0.85,-18.46,-29.59,-7.62,0.86,-0.7,-1.64,0.0031
0.73,0.85,-0.08,0.96,-2.05,-1.69,-17.58,-28.12,-7.91,0.86,-0.71,-1.65,0.0034
0.77,0.84,-0.1,-2.66,-8.04,-4.49,-18.46,-28.71,-7.91,0.82,-0.74,-1.67,0.0036
0.81,0.83,-0.1,-0.97,-10.13,-8.58,-17.87,-28.71,-8.79,0.8,-0.77,-1.67,0.0038
0.81,0.83,-0.06,0.25,-14.33,-12.2,-17.87,-29.59,-8.79,0.8,-0.77,-1.65,0.0041
0.73,0.86,-0.05,1.29,-18.67,-14.95,-17.29,-28.12,-8.79,0.87,-0.7,-1.66,0.0043
0.66,0.89,-0.1,-0.5,-27.56,-17.01,-17.87,-29.0,-9.67,0.92,-0.64,-1.68,0.0046
0.52,0.88,-0.16,-1.3,-22.13,-13.11,-17.58,-29.0,-9.38,1.01,-0.53,-1.7,0.0048
0.54,0.91,-0.15,1.76,-7.39,-10.59,-18.16,-29.59,-9.08,1.02,-0.53,-1.69,0.005
0.58,0.91,-0.15,2.49,-6.45,-5.79,-18.16,-29.0,-9.67,0.99,-0.56,-1.7,0.0053
0.57,0.91,-0.11,3.01,1.18,0.35,-18.16,-29.3,-9.96,1.0,-0.56,-1.7,0.0055
0.59,0.89,-0.08,4.7,10.29,6.51,-18.16,-29.3,-9.67,0.98,-0.58,-1.68,0.0057
0.63,0.9,-0.08,6.45,14.15,11.78,-17.87,-28.42,-9.08,0.96,-0.61,-1.68,0.006
0.69,0.88,-0.11,6.62,14.65,11.93,-18.46,-28.71,-8.79,0.9,-0.66,-1.68,0.0062
0.77,0.87,-0.14,4.68,9.51,6.61,-18.75,-28.71,-8.5,0.84,-0.72,-1.69,0.0064
0.83,0.85,-0.13,2.88,-2.08,-2.88,-17.87,-29.0,-9.08,0.79,-0.77,-1.68,0.0066
0.73,0.87,-0.15,1.01,-9.0,-7.72,-18.16,-29.0,-9.08,0.86,-0.69,-1.68,0.0069
0.66,0.88,-0.1,0.72,-8.34,-6.34,-17.58,-28.42,-9.38,0.92,-0.64,-1.68,0.0071
0.61,0.89,-0.1,2.37,-2.83,-3.22,-17.58,-28.42,-8.5,0.96,-0.6,-1.66,0.0073
0.64,0.9,-0.13,3.06,-0.75,-1.32,-17.58,-29.0,-9.38,0.94,-0.62,-1.67,0.0076
0.67,0.89,-0.11,2.66,-0.37,0.14,-17.87,-29.3,-9.08,0.92,-0.64,-1.66,0.0078
0.67,0.88,-0.13,2.83,-0.7,-0.78,-18.46,-28.42,-9.38,0.91,-0.64,-1.7,0.008
0.67,0.88,-0.11,2.81,-0.37,-0.63,-18.46,-28.71,-9.08,0.91,-0.65,-1.69,0.0082
0.7,0.89,-0.13,2.85,-1.77,-1.05,-17.87,-29.0,-8.5,0.9,-0.66,-1.66,0.0084
0.67,0.88,-0.12,2.2,-3.71,-3.26,-18.16,-29.59,-9.38,0.91,-0.65,-1.67,0.0086
0.66,0.89,-0.13,2.18,-2.37,-3.14,-18.75,-29.0,-8.5,0.92,-0.63,-1.68,0.0088
0.64,0.89,-0.11,2.68,-0.87,-0.61,-17.87,-28.71,-9.08,0.94,-0.62,-1.68,0.009
0.66,0.9,-0.11,3.01,-0.27,-0.68,-18.16,-28.12,-9.38,0.93,-0.63,-1.7,0.0092
0.69,0.88,-0.13,2.48,-2.66,-2.22,-18.75,-28.71,-9.08,0.9,-0.66,-1.7,0.0094
0.66,0.89,-0.13,2.52,-2.5,-2.78,-17.58,-28.71,-9.38,0.92,-0.63,-1.68,0.0096
0.64,0.9,-0.12,2.84,-0.79,-1.42,-18.46,-29.3,-9.96,0.94,-0.62,-1.7,0.0098
0.65,0.89,-0.11,3.49,0.72,0.31,-18.16,-28.42,-8.79,0.93,-0.63,-1.68,0.01
0.66,0.88,-0.13,3.22,0.37,-0.24,-18.75,-29.3,-9.96,0.92,-0.64,-1.7,0.0102
0.66,0.89,-0.13,3.42,0.06,-0.34,-18.16,-28.71,-8.79,0.93,-0.63,-1.68,0.0104
0.63,0.9,-0.12,5.5,3.36,1.03,-18.46,-29.0,-9.38,0.95,-0.6,-1.69,0.0106
0.67,0.89,-0.12,5.59,2.09,1.07,-17.87,-28.71,-9.08,0.92,-0.64,-1.68,0.0108
0.7,0.94,-0.1,8.83,1.4,-3.51,-18.16,-29.0,-9.38,0.93,-0.64,-1.68,0.011
0.72,1.01,-0.13,9.22,5.36,-6.61,-18.75,-28.12,-8.79,0.95,-0.61,-1.7,0.0112
0.86,0.97,-0.15,8.41,-17.02,-16.62,-18.75,-28.42,-9.67,0.84,-0.72,-1.72,0.0114
0.71,0.83,-0.14,-12.21,-27.95,-39.04,-19.34,-28.12,-10.25,0.86,-0.7,-1.74,0.0117
0.43,0.75,-0.09,-36.08,-37.7,-11.33,-18.46,-27.54,-9.96,1.04,-0.52,-1.74,0.0119
0.3,0.75,-0.05,-94.79,22.45,-71.25,-18.16,-26.37,-7.91,1.18,-0.39,-1.73,0.0121
0.29,0.85,0.04,-81.3,16.73,-44.27,-16.11,-26.07,-7.03,1.24,-0.33,-1.7,0.0123
0.27,1.02,0.08,-0.91,11.8,-34.21,-14.65,-25.2,-6.74,1.3,-0.26,-1.72,0.0125
0.31,1.13,0.18,1.11,56.34,13.11,-15.23,-24.9,-5.57,1.26,-0.26,-1.71,0.0127
0.45,0.86,0.23,-20.67,14.95,-2.33,-15.23,-24.02,-4.98,1.04,-0.47,-1.66,0.0129
0.41,0.88,0.34,-23.03,0.35,12.08,-13.48,-25.2,-5.57,1.03,-0.41,-1.68,0.0131
0.24,1.15,0.37,4.72,12.73,14.18,-12.6,-24.9,-5.27,1.2,-0.2,-1.76,0.0133
0.4,0.85,0.37,15.66,13.04,14.11,-13.18,-24.32,-6.15,1.0,-0.41,-1.72,0.0135
0.47,0.99,0.32,22.06,0.51,4.75,-13.77,-23.44,-6.45,1.05,-0.42,-1.72,0.0137
0.55,0.9,0.27,11.53,-2.15,2.87,-14.06,-23.14,-7.62,0.97,-0.53,-1.72,0.0139
0.46,0.89,0.27,12.41,-26.6,-13.82,-14.06,-23.14,-7.62,1.03,-0.46,-1.75,0.0141
0.31,0.91,0.14,18.51,-22.32,-23.77,-14.06,-23.73,-8.5,1.22,-0.32,-1.78,0.0144
0.45,0.93,0.03,15.57,-36.78,-11.85,-14.06,-24.02,-9.67,1.12,-0.45,-1.75,0.0146
0.19,0.96,0.11,22.45,-3.24,-6.91,-14.06,-22.56,-9.96,1.35,-0.19,-1.91,0.0148
0.33,0.95,0.07,23.59,7.02,0.45,-14.06,-22.56,-10.25,1.23,-0.33,-1.84,0.015
0.35,1.0,0.07,20.75,1.04,-1.88,-14.06,-22.56,-11.43,1.23,-0.34,-1.87,0.0152
0.36,0.96,0.02,15.97,-7.39,-5.25,-14.06,-22.27,-10.84,1.21,-0.36,-1.85,0.0154
0.4,0.94,-0.01,15.43,-32.78,-7.59,-14.65,-22.85,-11.13,1.17,-0.4,-1.84,0.0156
0.32,0.99,-0.1,5.74,-39.86,-6.19,-14.06,-23.44,-11.13,1.25,-0.31,-1.86,0.0158
0.36,1.01,-0.01,5.46,-14.06,-1.61,-14.06,-23.44,-11.43,1.23,-0.34,-1.85,0.016
0.37,1.02,0.13,0.21,-37.88,-3.02,-14.06,-24.02,-12.3,1.2,-0.34,-1.87,0.0162
0.44,0.98,-0.02,-7.02,-68.01,-8.59,-13.18,-24.9,-11.13,1.15,-0.42,-1.77,0.0165
0.56,0.93,0.07,-8.54,-102.02,-21.39,-13.18,-25.2,-12.3,1.03,-0.54,-1.74,0.0167
0.52,0.97,-0.03,-27.6,-122.87,-27.72,-13.18,-26.66,-12.6,1.08,-0.49,-1.74,0.0169
0.41,0.95,0.01,-48.29,-144.59,-35.71,-12.01,-26.95,-12.3,1.16,-0.41,-1.75,0.0171
0.18,1.0,0.04,-37.1,-55.36,-0.08,-11.72,-27.83,-12.89,1.39,-0.18,-1.89,0.0173
0.14,0.95,0.24,-13.11,-48.33,3.31,-11.72,-28.42,-14.36,1.28,-0.14,-1.98,0.0175
0.23,1.27,-0.15,33.62,37.53,-11.05,-11.43,-28.12,-13.77,1.36,-0.18,-1.92,0.0177
0.61,1.01,-0.16,9.77,-69.5,-25.01,-12.01,-27.54,-13.77,1.01,-0.54,-1.72,0.0179
0.46,1.17,-0.26,8.22,-24.33,-4.31,-11.43,-28.42,-13.77,1.15,-0.36,-1.8,0.0182
0.53,1.28,-0.35,9.74,-40.18,-4.77,-11.72,-28.42,-14.06,1.11,-0.38,-1.8,0.0184
0.44,1.04,-0.17,22.0,-27.5,16.01,-11.13,-28.12,-12.6,1.14,-0.4,-1.74,0.0185
0.26,0.9,-0.0,31.2,-42.08,6.99,-10.55,-29.59,-10.84,1.29,-0.28,-1.73,0.0187
0.02,0.97,-0.09,65.26,69.37,63.96,-11.13,-28.71,-9.67,1.47,-0.02,-1.91,0.0189
0.43,0.7,-0.02,25.73,94.76,73.84,-11.13,-27.54,-8.2,1.02,-0.55,-1.56,0.0191
0.56,0.69,-0.01,-37.7,60.99,49.79,-9.96,-26.07,-8.79,0.89,-0.68,-1.53,0.0193
0.61,0.68,0.12,-53.89,94.2,46.57,-8.2,-24.9,-9.38,0.83,-0.72,-1.51,0.0195
0.86,0.72,0.21,-76.37,29.7,23.38,-6.45,-24.61,-10.55,0.68,-0.86,-1.47,0.0197
0.81,0.83,0.2,-73.24,-1.21,14.09,-6.15,-25.49,-12.01,0.78,-0.76,-1.5,0.0198
0.85,0.74,0.29,-71.85,-37.7,-2.89,-5.27,-24.61,-13.18,0.69,-0.82,-1.51,0.02
0.68,0.75,0.31,-53.82,-34.98,-9.54,-5.57,-25.49,-14.65,0.79,-0.69,-1.58,0.0202
0.67,0.79,0.29,-41.66,-54.47,-22.91,-4.69,-25.78,-14.94,0.83,-0.67,-1.57,0.0204
0.71,0.73,0.29,-37.48,-104.08,-47.34,-4.39,-26.37,-16.11,0.76,-0.73,-1.55,0.0206
0.56,0.84,0.1,-20.9,-109.05,-83.97,-4.69,-28.12,-16.7,0.98,-0.58,-1.61,0.0208
0.44,0.79,0.0,-29.75,-86.75,-96.47,-5.57,-28.42,-18.46,1.07,-0.51,-1.71,0.021
0.67,0.76,0.04,-60.03,-103.61,-118.87,-7.03,-29.0,-18.75,0.85,-0.72,-1.6,0.0212
0.76,1.19,-0.33,-43.43,-118.29,-73.57,-7.62,-29.59,-19.63,0.96,-0.55,-1.72,0.0214
0.66,0.89,0.48,1.97,59.97,-72.45,-8.5,-29.59,-18.46,0.83,-0.58,-1.72,0.0216
-0.07,1.47,0.1,-25.75,-109.48,-51.02,-9.67,-29.59,-19.34,1.49,0.05,-2.21,0.0217
0.34,0.99,0.26,10.86,6.44,-31.05,-9.96,-29.59,-19.34,1.16,-0.32,-1.91,0.0219
0.53,0.98,0.19,-8.09,-70.12,-43.88,-9.67,-30.18,-20.8,1.05,-0.49,-1.8,0.0221
0.2,0.94,0.31,-1.03,-46.97,-41.32,-11.13,-30.47,-21.39,1.19,-0.2,-2.06,0.0223
0.2,0.94,0.07,-2.46,-24.68,-18.58,-10.55,-30.76,-22.27,1.34,-0.21,-2.03,0.0225
0.46,0.93,-0.01,-11.25,-27.68,-18.42,-11.13,-30.76,-22.27,1.11,-0.46,-1.85,0.0227
0.22,1.01,0.02,-14.0,6.61,-11.04,-10.84,-30.76,-22.56,1.35,-0.22,-2.03,0.0229
0.42,0.97,0.04,-33.6,-40.95,-18.55,-11.43,-31.05,-21.68,1.16,-0.41,-1.87,0.0231
0.21,0.97,0.13,-27.24,14.92,-6.46,-11.13,-30.76,-21.97,1.33,-0.21,-2.04,0.0232
0.1,1.05,-0.0,-30.87,47.9,16.25,-11.43,-31.05,-22.27,1.47,-0.1,-2.12,0.0234
0.23,0.96,0.3,-28.6,53.42,26.92,-11.13,-30.47,-19.92,1.2,-0.22,-2.01,0.0236
0.27,0.91,0.29,-37.18,28.21,13.02,-10.55,-31.05,-18.75,1.17,-0.27,-1.93,0.0238
0.4,0.88,0.01,-55.08,15.79,22.51,-9.67,-30.76,-19.63,1.14,-0.43,-1.81,0.024
0.59,1.0,-0.03,-76.9,-12.44,8.09,-8.79,-30.47,-18.46,1.04,-0.53,-1.71,0.0242
-0.14,1.17,0.16,-38.0,10.19,74.67,-7.62,-29.88,-18.75,1.39,0.12,-2.27,0.0244
0.41,1.04,0.69,-16.49,-20.22,73.43,-5.27,-29.59,-18.16,0.91,-0.32,-1.85,0.0245
0.48,0.77,0.81,62.68,-33.05,23.2,-6.15,-29.3,-18.46,0.69,-0.4,-1.81,0.0247
0.28,0.53,0.67,159.84,56.51,54.89,-6.45,-27.54,-17.58,0.63,-0.32,-1.88,0.0249
0.31,0.66,0.59,183.27,110.28,44.04,-6.45,-26.95,-16.11,0.78,-0.34,-1.86,0.0251
0.29,0.51,0.91,163.59,181.59,39.03,-7.62,-24.61,-14.65,0.49,-0.27,-1.93,0.0253
0.23,0.55,0.34,80.02,90.6,-3.75,-7.91,-23.73,-14.94,0.93,-0.34,-1.91,0.0254
1.59,0.81,0.42,-70.78,-21.1,7.45,-7.32,-22.27,-14.36,0.46,-1.05,-1.62,0.0256
0.35,0.89,0.41,-49.31,-39.89,6.68,-6.15,-21.39,-15.53,1.03,-0.34,-1.93,0.0258
0.51,0.93,0.5,-24.35,29.69,27.36,-6.74,-21.39,-15.53,0.91,-0.45,-1.86,0.0259
0.47,0.91,0.12,-46.49,-24.31,24.66,-5.86,-21.09,-15.23,1.08,-0.48,-1.81,0.0261
0.44,1.09,-0.1,-66.96,6.62,50.02,-6.15,-19.63,-16.7,1.18,-0.38,-1.96,0.0263
0.57,1.48,-0.54,-37.86,65.92,82.06,-4.69,-19.04,-16.99,1.08,-0.35,-1.99,0.0265
0.21,1.17,0.72,-11.15,56.22,80.7,-4.98,-16.7,-17.29,1.0,-0.15,-2.24,0.0266
0.52,0.91,0.7,106.1,4.94,13.0,-4.98,-14.65,-17.58,0.81,-0.42,-2.05,0.0268
0.41,0.6,0.68,196.34,41.93,-28.82,-5.86,-14.94,-15.53,0.65,-0.43,-2.01,0.027
0.44,0.53,0.61,238.84,45.41,-27.89,-9.08,-12.3,-15.82,0.62,-0.5,-2.15,0.0271
0.46,0.71,0.51,206.82,-14.08,-42.5,-12.01,-11.72,-16.41,0.8,-0.48,-2.26,0.0273
0.44,0.72,-0.24,65.54,-2.43,-53.55,-14.06,-10.84,-17.87,0.97,-0.52,-2.3,0.0275
0.25,0.7,-0.01,-47.06,106.77,-3.17,-14.36,-9.67,-19.34,1.23,-0.34,-2.45,0.0277
0.43,0.93,0.05,-63.58,191.25,19.32,-15.82,-7.62,-22.27,1.13,-0.43,-2.51,0.0278
0.65,0.85,0.8,-87.66,-118.41,-29.11,-14.94,-8.2,-21.97,0.69,-0.51,-2.44,0.028
0.1,0.99,0.47,-26.35,67.44,4.23,-14.65,-7.91,-21.09,1.12,-0.09,-2.76,0.0282
0.3,0.99,-0.09,-38.72,-26.37,-4.62,-14.65,-9.08,-21.68,1.27,-0.29,-2.54,0.0284
0.27,1.0,-0.12,-43.62,4.43,18.15,-15.23,-8.79,-20.51,1.28,-0.26,-2.56,0.0285
0.35,1.01,0.16,-55.67,4.79,25.67,-14.65,-8.79,-21.09,1.21,-0.33,-2.52,0.0287
0.32,1.15,-0.26,-80.49,40.15,53.73,-16.11,-9.38,-20.8,1.23,-0.27,-2.56,0.0289
0.49,1.47,-0.6,-103.27,63.43,85.27,-16.7,-8.5,-21.39,1.09,-0.3,-2.59,0.0291
0.18,1.04,0.64,-53.83,-39.19,52.73,-16.99,-7.32,-21.39,1.0,-0.14,-2.77,0.0292
0.61,0.81,0.65,72.78,-27.03,21.35,-16.41,-8.5,-22.85,0.73,-0.53,-2.44,0.0294
0.37,0.47,0.58,168.76,63.77,5.31,-16.7,-10.25,-24.61,0.6,-0.46,-2.44,0.0296
0.41,0.54,0.59,217.61,60.59,-9.6,-15.23,-13.48,-25.78,0.64,-0.47,-2.32,0.0298
0.53,0.8,0.43,218.69,45.62,-20.0,-15.23,-14.36,-28.12,0.86,-0.53,-2.28,0.0299
0.21,0.91,-0.02,108.3,66.83,-34.91,-14.06,-16.7,-28.12,1.35,-0.22,-2.43,0.0301
0.28,0.71,-0.26,-29.86,102.08,-9.57,-14.65,-16.7,-27.83,1.08,-0.36,-2.34,0.0303
0.33,0.87,0.12,-75.78,92.12,8.54,-15.82,-19.34,-25.78,1.19,-0.36,-2.25,0.0305
0.8,0.83,0.58,-51.31,-55.34,-24.03,-15.53,-19.04,-24.9,0.7,-0.67,-2.08,0.0306
0.19,1.09,0.15,-28.76,48.68,-6.66,-15.82,-19.34,-24.61,1.36,-0.17,-2.37,0.0308
0.35,0.98,0.19,-25.27,23.25,-3.43,-15.53,-20.51,-23.44,1.18,-0.34,-2.21,0.031
0.24,0.96,0.01,-26.47,22.25,0.14,-16.11,-20.21,-23.44,1.33,-0.24,-2.27,0.0312
0.31,0.97,0.01,-37.62,16.81,5.65,-16.7,-20.8,-22.27,1.26,-0.31,-2.2,0.0313
0.35,0.95,0.26,-48.02,-10.6,9.74,-16.41,-20.51,-22.27,1.14,-0.34,-2.21,0.0315
0.24,1.04,0.02,-56.27,44.35,31.02,-15.53,-21.39,-20.21,1.34,-0.23,-2.19,0.0317
0.22,1.34,-0.3,-87.22,76.45,68.36,-15.23,-22.85,-17.87,1.3,-0.16,-2.18,0.0319
0.71,1.25,0.02,-48.12,-105.62,52.67,-15.53,-25.2,-17.29,1.06,-0.51,-1.89,0.032
0.24,0.88,0.76,-3.92,6.0,28.5,-14.94,-27.54,-16.7,0.84,-0.21,-2.1,0.0322
0.32,0.67,0.7,125.08,41.7,20.57,-14.36,-27.83,-17.58,0.71,-0.32,-2.04,0.0324
0.55,0.47,0.55,188.01,137.54,29.41,-14.06,-28.12,-19.04,0.54,-0.66,-1.88,0.0326
0.52,0.59,0.65,211.97,-4.72,22.13,-14.94,-27.54,-19.92,0.62,-0.53,-1.96,0.0327
0.58,0.9,0.2,198.94,55.27,-14.88,-16.41,-27.83,-21.09,0.97,-0.56,-1.9,0.0329
0.19,0.81,-0.42,32.01,36.37,-27.28,-16.41,-28.42,-20.8,1.06,-0.2,-2.15,0.0331
0.26,0.8,-0.16,-32.95,46.34,-21.15,-15.53,-27.83,-19.04,1.2,-0.31,-1.99,0.0332
0.56,0.93,-0.02,-50.76,134.54,9.42,-15.82,-27.54,-17.58,1.03,-0.54,-1.84,0.0334
0.75,0.91,0.52,-36.07,-25.73,-40.17,-14.65,-26.95,-16.11,0.79,-0.62,-1.84,0.0336
0.07,0.99,0.02,-15.3,87.29,-9.52,-14.94,-26.66,-15.53,1.5,-0.07,-2.06,0.0337
0.25,1.03,-0.01,-16.37,49.29,-5.18,-14.36,-26.07,-15.23,1.33,-0.24,-1.96,0.0339
0.37,0.98,0.16,-11.89,30.54,-12.02,-14.06,-25.49,-14.65,1.18,-0.36,-1.9,0.0341
0.22,0.99,0.06,-18.04,11.63,-7.26,-14.06,-26.07,-14.94,1.34,-0.22,-1.96,0.0342
0.3,0.97,0.1,-19.3,38.56,-1.91,-13.48,-24.61,-14.36,1.26,-0.29,-1.93,0.0344
0.27,0.99,0.04,-30.47,-2.28,-5.88,-13.18,-25.49,-14.06,1.3,-0.26,-1.92,0.0345
0.25,0.97,0.04,-39.83,-7.55,-7.91,-12.89,-25.49,-13.48,1.32,-0.25,-1.91,0.0347
0.14,0.96,0.09,-50.83,-31.52,-1.15,-12.89,-24.61,-12.89,1.4,-0.15,-1.98,0.0349
0.34,1.06,0.19,-58.79,-10.7,21.76,-10.84,-25.78,-12.01,1.22,-0.31,-1.82,0.035
0.5,1.14,-0.1,-46.06,52.52,31.73,-9.96,-26.07,-11.13,1.15,-0.41,-1.7,0.0352
0.73,1.08,0.19,-45.34,-116.53,17.06,-9.08,-28.12,-9.96,0.96,-0.59,-1.54,0.0353
0.29,0.83,0.79,2.15,-18.45,40.35,-9.67,-28.71,-9.67,0.78,-0.25,-1.85,0.0355
0.24,0.65,0.68,127.99,39.02,54.82,-11.13,-28.12,-9.08,0.73,-0.25,-1.89,0.0356
0.43,0.45,0.63,180.92,135.56,82.27,-14.65,-26.66,-8.79,0.53,-0.5,-1.92,0.0358
0.6,0.65,0.5,197.74,75.54,74.98,-17.29,-25.49,-11.13,0.69,-0.63,-1.9,0.036
0.58,1.03,-0.25,130.55,154.21,26.03,-19.34,-23.44,-11.43,1.02,-0.5,-1.9,0.0361
0.27,0.9,-0.11,-12.08,67.24,6.87,-20.51,-23.14,-11.13,1.26,-0.29,-1.95,0.0363
0.15,0.8,0.36,-11.11,151.94,42.37,-19.63,-20.8,-10.25,1.12,-0.16,-2.15,0.0364
0.33,0.59,0.74,41.16,181.05,60.93,-20.21,-18.46,-10.84,0.63,-0.34,-2.3,0.0366
1.11,0.5,0.64,24.65,103.16,4.81,-20.8,-16.11,-13.18,0.38,-0.94,-2.28,0.0367
0.89,1.13,0.24,10.79,-114.81,-70.3,-19.92,-16.11,-12.6,0.89,-0.66,-2.13,0.0369
0.17,0.96,-0.03,43.18,107.29,-12.74,-20.51,-14.36,-14.65,1.4,-0.17,-2.32,0.0371
0.43,1.0,0.11,25.53,57.22,-8.77,-21.09,-13.77,-14.65,1.15,-0.41,-2.28,0.0372
0.35,0.94,0.3,20.59,-8.71,-8.67,-21.39,-12.89,-15.53,1.11,-0.34,-2.39,0.0374
0.21,0.94,0.07,20.83,27.32,-3.03,-21.68,-12.6,-16.11,1.34,-0.22,-2.41,0.0375
0.32,0.95,0.06,18.94,13.78,3.66,-21.68,-12.01,-16.7,1.24,-0.32,-2.4,0.0377
0.19,1.0,0.06,29.56,118.71,23.7,-22.56,-11.43,-18.16,1.38,-0.18,-2.51,0.0379
0.49,1.25,-0.04,69.0,242.2,25.65,-22.27,-11.72,-18.46,1.19,-0.38,-2.42,0.038
0.31,0.97,0.12,-0.69,-23.5,6.66,-22.56,-11.13,-19.63,1.24,-0.31,-2.49,0.0382
0.24,1.0,0.05,8.27,9.92,7.16,-22.85,-11.13,-19.63,1.33,-0.24,-2.52,0.0383
0.22,0.99,0.03,3.23,7.55,9.0,-22.85,-10.84,-19.92,1.35,-0.22,-2.54,0.0385
0.27,0.95,0.17,-6.64,5.28,3.85,-23.14,-11.72,-19.34,1.25,-0.27,-2.5,0.0387
0.23,1.01,0.12,-1.4,2.27,6.37,-22.85,-11.13,-19.04,1.32,-0.23,-2.52,0.0388
0.28,0.99,0.1,-2.48,-4.84,3.27,-22.27,-12.01,-19.63,1.28,-0.27,-2.47,0.039
0.35,0.96,0.14,-2.47,-28.84,0.34,-22.56,-12.6,-18.46,1.19,-0.35,-2.42,0.0391
0.33,0.98,0.08,-6.77,-45.29,-7.75,-21.97,-12.6,-17.87,1.24,-0.33,-2.4,0.0393
0.17,1.01,0.04,-7.72,-41.28,5.42,-22.56,-12.3,-16.7,1.4,-0.17,-2.45,0.0394
0.39,0.97,0.08,-14.42,-63.8,13.47,-21.97,-14.06,-16.11,1.18,-0.38,-2.31,0.0396
0.28,0.98,0.13,-10.97,-39.57,21.93,-22.85,-14.65,-14.94,1.26,-0.28,-2.31,0.0398
0.37,0.95,0.13,-8.5,-38.23,33.79,-22.27,-15.53,-14.94,1.18,-0.37,-2.26,0.0399
0.45,0.97,0.28,0.94,-48.9,35.08,-22.56,-16.7,-15.82,1.07,-0.42,-2.25,0.0401
0.72,0.98,0.21,15.05,-56.16,19.07,-21.68,-17.87,-15.53,0.92,-0.62,-2.13,0.0402
0.45,0.92,-0.21,6.65,6.55,-12.17,-21.97,-16.99,-15.53,1.08,-0.44,-2.21,0.0404
0.45,0.76,-0.01,-72.17,-14.99,-36.43,-20.8,-16.99,-14.65,1.03,-0.54,-2.13,0.0406
0.51,0.66,0.27,-43.22,-2.07,-51.59,-20.51,-16.11,-13.18,0.85,-0.62,-2.18,0.0407
1.14,0.87,-0.12,-13.63,-90.39,-40.75,-19.92,-16.41,-12.89,0.65,-0.91,-2.13,0.0409
0.49,0.91,0.36,7.27,29.63,-61.75,-19.34,-15.82,-13.48,0.98,-0.46,-2.21,0.041
0.49,0.9,0.24,14.21,-5.49,-32.43,-19.92,-15.82,-13.18,1.03,-0.48,-2.18,0.0412
0.25,1.0,0.04,8.29,7.06,-23.89,-19.34,-14.65,-13.48,1.33,-0.24,-2.25,0.0413
0.37,0.99,0.1,-4.07,-94.38,-27.5,-19.04,-15.53,-12.01,1.2,-0.35,-2.15,0.0415
0.11,0.95,0.29,30.7,51.72,-4.26,-19.92,-14.94,-14.06,1.25,-0.11,-2.4,0.0416
0.36,0.96,0.05,9.19,-36.34,-14.38,-20.21,-15.23,-12.89,1.21,-0.36,-2.19,0.0418
0.33,0.97,0.02,4.77,-53.34,-18.31,-19.63,-15.23,-13.77,1.24,-0.33,-2.21,0.0419
0.3,1.02,-0.04,2.38,-48.71,-12.75,-19.04,-16.11,-13.18,1.28,-0.28,-2.17,0.0421
0.38,1.01,-0.03,-2.69,-58.39,-12.42,-19.04,-17.87,-12.6,1.21,-0.36,-2.08,0.0422
0.31,0.89,0.03,-3.46,-87.79,-16.21,-19.34,-18.46,-13.18,1.23,-0.34,-2.09,0.0424
0.29,1.01,-0.06,21.42,21.86,6.95,-19.34,-17.29,-12.01,1.29,-0.28,-2.11,0.0425
0.35,0.94,-0.23,1.59,-19.37,4.97,-19.63,-16.99,-11.72,1.15,-0.35,-2.14,0.0427
0.34,0.99,0.01,-0.82,-0.15,7.0,-19.04,-17.87,-12.6,1.24,-0.34,-2.09,0.0428
0.2,1.06,-0.04,-8.79,-11.55,7.44,-19.34,-17.87,-12.01,1.38,-0.18,-2.12,0.043
0.27,1.01,-0.1,-6.48,39.89,25.44,-19.04,-18.16,-12.3,1.29,-0.26,-2.1,0.0431
0.38,0.94,-0.03,12.37,103.0,46.42,-19.34,-17.29,-12.6,1.18,-0.38,-2.1,0.0433
0.26,0.99,-0.12,-19.87,13.7,50.43,-18.46,-17.29,-11.72,1.29,-0.25,-2.11,0.0434
0.36,0.96,0.36,-11.48,0.02,59.56,-19.04,-18.16,-11.72,1.08,-0.34,-2.14,0.0436
0.39,0.93,0.58,19.25,33.35,73.2,-19.34,-19.34,-12.3,0.93,-0.34,-2.19,0.0437
0.84,0.9,-0.05,32.88,73.5,36.82,-19.63,-18.46,-12.3,0.82,-0.75,-2.03,0.0439
1.25,0.89,-0.35,-34.59,-158.88,-67.04,-19.34,-19.92,-12.3,0.6,-0.92,-2.05,0.044
0.58,0.94,-0.21,-27.81,-124.28,-85.35,-19.04,-21.39,-12.01,0.99,-0.54,-1.95,0.0442
0.13,0.77,0.39,26.45,-58.99,-76.45,-19.34,-21.09,-12.3,1.08,-0.15,-2.21,0.0443
-0.01,0.84,0.45,137.12,201.29,-11.27,-20.21,-19.63,-14.36,1.08,0.01,-2.42,0.0445
0.66,1.44,-1.02,-29.05,216.9,39.9,-21.39,-16.99,-15.23,0.87,-0.36,-2.33,0.0446
1.37,0.91,0.19,-46.79,-190.31,-75.21,-19.63,-17.87,-14.36,0.58,-0.97,-2.1,0.0448
-0.23,1.15,0.06,0.37,66.1,14.72,-20.51,-19.04,-13.77,1.37,0.2,-2.49,0.0449
0.64,0.98,0.06,10.21,140.46,6.94,-20.51,-16.7,-14.94,1.0,-0.57,-2.14,0.0451
0.53,0.96,0.02,-19.55,-48.51,-23.31,-20.21,-16.7,-14.65,1.07,-0.5,-2.14,0.0452
0.06,1.07,-0.13,-7.35,41.85,4.41,-19.34,-16.99,-13.77,1.44,-0.05,-2.28,0.0454
0.43,0.96,0.15,-6.45,15.23,2.79,-20.51,-16.7,-13.77,1.13,-0.41,-2.16,0.0455
0.4,0.96,0.23,-5.84,-34.52,-3.08,-19.63,-16.7,-14.06,1.12,-0.38,-2.18,0.0457
0.24,0.99,0.11,2.45,9.59,11.57,-19.63,-17.58,-13.77,1.31,-0.23,-2.18,0.0458
0.38,0.96,0.17,1.37,-3.59,15.67,-20.51,-16.99,-13.48,1.16,-0.37,-2.16,0.046
0.35,0.97,0.14,-4.88,-13.51,18.1,-19.34,-17.29,-13.77,1.2,-0.34,-2.15,0.0461
0.2,1.09,-0.43,-20.58,16.62,34.3,-19.04,-17.58,-13.18,1.16,-0.17,-2.28,0.0463
0.53,0.91,0.18,-28.07,-65.28,21.42,-19.04,-19.34,-12.89,1.02,-0.52,-2.03,0.0464
0.51,0.87,0.01,-22.06,-41.93,38.09,-18.46,-20.51,-12.6,1.04,-0.53,-1.96,0.0466
0.68,1.11,-0.08,-4.78,-11.2,37.64,-18.46,-21.09,-11.43,1.02,-0.55,-1.92,0.0467
0.96,0.98,0.12,-15.98,-43.37,27.99,-18.16,-22.56,-11.72,0.79,-0.77,-1.87,0.0469
0.53,0.5,0.46,12.34,3.38,-22.86,-19.04,-22.27,-10.84,0.62,-0.66,-2.05,0.047
0.26,0.54,0.47,46.81,-43.44,-96.89,-19.92,-21.39,-11.72,0.79,-0.35,-2.18,0.0472
0.33,0.83,0.38,60.21,-224.21,-130.78,-20.21,-22.56,-13.48,1.03,-0.35,-2.09,0.0473
1.02,0.38,-0.11,27.41,249.99,95.62,-20.51,-20.51,-14.36,0.35,-1.2,-2.18,0.0475
0.83,0.89,0.11,-46.39,-208.1,-60.18,-20.21,-22.85,-12.6,0.82,-0.74,-1.92,0.0477
0.13,1.01,0.16,14.61,-9.55,12.95,-19.34,-21.97,-13.18,1.37,-0.13,-2.11,0.0478
0.73,0.86,0.03,17.58,60.55,16.1,-19.92,-22.27,-13.48,0.87,-0.7,-1.93,0.048
0.59,0.92,-0.13,20.35,51.26,12.01,-19.92,-21.97,-14.65,0.99,-0.57,-1.98,0.0481
0.61,0.95,-0.28,-6.71,-42.95,-9.3,-19.34,-22.56,-14.36,0.96,-0.55,-1.98,0.0483
0.51,0.97,-0.04,1.47,21.2,5.11,-19.92,-22.56,-13.77,1.09,-0.48,-1.96,0.0484
0.63,0.89,0.01,-0.02,1.21,-0.95,-19.04,-21.68,-13.77,0.95,-0.62,-1.94,0.0486
0.6,0.91,0.05,5.04,11.48,-2.35,-19.34,-21.68,-13.77,0.98,-0.59,-1.95,0.0487
0.56,0.92,-0.07,6.18,12.73,-1.16,-20.21,-22.27,-14.36,1.02,-0.55,-1.97,0.0489
0.55,0.92,-0.08,-1.92,-11.02,-7.39,-19.63,-21.97,-14.06,1.02,-0.54,-1.97,0.049
0.57,0.93,0.02,1.07,-4.29,-5.3,-19.63,-22.56,-14.65,1.02,-0.55,-1.96,0.0492
0.57,0.93,-0.01,1.23,-4.13,-5.65,-19.34,-21.97,-14.36,1.02,-0.55,-1.96,0.0493
0.54,0.94,-0.04,0.82,-8.8,-5.0,-19.34,-21.97,-13.77,1.05,-0.52,-1.96,0.0494
0.54,0.94,-0.02,1.88,-1.72,-3.43,-19.63,-21.68,-14.36,1.05,-0.52,-1.98,0.0496
0.54,0.93,-0.02,3.03,1.25,-2.52,-19.63,-21.97,-13.48,1.04,-0.53,-1.95,0.0497
0.54,0.94,-0.02,4.36,1.68,-1.71,-19.92,-21.68,-13.48,1.05,-0.52,-1.97,0.0499
0.53,0.95,-0.03,2.84,-1.72,-2.15,-19.92,-21.09,-13.77,1.06,-0.51,-1.99,0.05
0.54,0.94,-0.02,3.46,-3.06,-1.71,-19.92,-21.97,-14.65,1.05,-0.52,-1.98,0.0502
0.54,0.95,-0.03,2.39,-7.11,-2.19,-19.04,-21.09,-14.06,1.05,-0.52,-1.98,0.0503
0.53,0.95,-0.03,2.99,0.47,-0.47,-19.04,-21.68,-14.65,1.06,-0.51,-1.98,0.0505
0.53,0.95,-0.05,2.65,5.73,0.98,-19.04,-21.39,-14.06,1.06,-0.51,-1.98,0.0506
0.55,0.93,-0.03,2.16,0.86,-0.06,-19.34,-21.39,-14.06,1.04,-0.53,-1.97,0.0508
0.55,0.94,0.0,3.36,1.66,-0.4,-19.63,-21.97,-14.06,1.04,-0.54,-1.96,0.0509
0.54,0.93,-0.04,2.66,-4.82,-1.96,-19.63,-21.09,-13.77,1.05,-0.52,-1.98,0.051
0.54,0.94,-0.03,0.52,-11.92,-3.16,-19.92,-21.68,-14.06,1.05,-0.52,-1.98,0.0512
0.53,0.95,-0.02,1.59,-3.07,-0.86,-19.63,-21.97,-14.06,1.06,-0.51,-1.97,0.0513
0.53,0.95,-0.04,2.63,-0.69,0.33,-19.63,-21.68,-14.65,1.06,-0.51,-1.99,0.0514
0.52,0.94,-0.04,2.73,3.52,1.79,-19.34,-22.27,-14.06,1.07,-0.5,-1.96,0.0516
0.55,0.94,-0.02,2.56,0.82,1.24,-19.34,-21.68,-13.77,1.04,-0.53,-1.96,0.0517
0.54,0.93,-0.01,3.59,-0.76,0.02,-19.34,-21.97,-14.65,1.04,-0.53,-1.97,0.0518
0.54,0.94,-0.05,5.39,5.65,1.78,-19.34,-21.68,-13.77,1.05,-0.52,-1.96,0.052
0.53,0.95,-0.04,3.2,2.19,0.09,-19.04,-21.68,-15.23,1.06,-0.51,-1.99,0.0521
0.55,0.92,-0.04,2.75,0.54,0.18,-19.04,-21.97,-14.36,1.03,-0.53,-1.96,0.0522
0.54,0.94,-0.01,3.34,-0.52,0.13,-19.63,-21.09,-14.06,1.05,-0.52,-1.99,0.0524
0.55,0.94,-0.03,1.61,-3.32,-0.41,-19.63,-21.09,-13.77,1.04,-0.53,-1.98,0.0525
0.54,0.94,-0.04,1.71,0.27,0.73,-19.63,-21.68,-14.06,1.05,-0.52,-1.98,0.0526
0.55,0.93,-0.03,1.51,0.56,1.03,-19.63,-21.97,-13.48,1.04,-0.53,-1.95,0.0528
0.54,0.93,-0.02,2.18,3.38,1.56,-19.34,-22.27,-14.36,1.04,-0.53,-1.96,0.0529
0.56,0.93,-0.04,1.06,-0.99,-0.35,-19.34,-21.09,-14.06,1.03,-0.54,-1.98,0.053
0.56,0.92,-0.0,1.86,-6.03,-3.09,-19.34,-21.39,-13.77,1.02,-0.55,-1.97,0.0532
0.54,0.96,-0.01,4.13,-1.59,-1.95,-19.92,-21.97,-13.77,1.06,-0.51,-1.97,0.0534
0.56,0.94,-0.04,3.11,-2.95,-3.33,-19.34,-21.68,-14.06,1.03,-0.54,-1.97,0.0535
0.53,0.95,-0.02,3.3,-2.48,-3.53,-19.92,-22.27,-14.36,1.06,-0.51,-1.97,0.0536
0.53,0.94,-0.04,2.27,-3.23,-3.21,-19.34,-21.68,-14.06,1.05,-0.51,-1.97,0.0538
0.54,0.94,-0.04,1.66,-4.01,-3.46,-19.92,-21.97,-13.77,1.05,-0.52,-1.97,0.0539
0.51,0.96,-0.04,4.3,11.63,-0.08,-19.63,-21.97,-14.06,1.08,-0.49,-1.97,0.054
0.54,0.93,-0.05,8.31,25.05,3.29,-19.63,-20.8,-13.77,1.04,-0.53,-1.99,0.0542
0.5,0.99,-0.08,10.6,45.76,7.51,-19.92,-20.8,-14.36,1.1,-0.47,-2.02,0.0543
0.55,0.93,-0.03,4.34,28.62,3.33,-19.34,-20.51,-14.65,1.04,-0.53,-2.01,0.0544
0.54,0.96,-0.01,5.1,42.4,9.59,-19.63,-19.92,-13.77,1.06,-0.51,-2.02,0.0546
0.65,0.88,0.0,17.61,92.8,48.16,-20.51,-19.34,-14.06,0.94,-0.64,-2.04,0.0547
0.66,0.86,0.11,22.6,96.47,39.31,-21.09,-19.04,-14.65,0.91,-0.65,-2.07,0.0548
0.5,0.91,0.09,16.14,53.76,15.5,-21.39,-17.87,-14.65,1.06,-0.5,-2.13,0.055
0.41,0.88,0.29,2.92,2.62,-24.51,-20.51,-17.58,-15.53,1.05,-0.42,-2.2,0.0551
0.56,0.89,0.12,1.37,-11.8,-20.77,-20.51,-18.16,-14.94,1.0,-0.56,-2.1,0.0553
0.51,1.02,-0.1,3.46,-7.61,-17.39,-20.8,-16.99,-14.94,1.1,-0.46,-2.16,0.0554
0.48,0.96,0.06,2.46,3.88,-15.45,-21.09,-17.29,-15.23,1.11,-0.46,-2.16,0.0556
0.44,0.92,0.13,3.17,-6.15,-15.19,-21.68,-17.58,-14.94,1.11,-0.45,-2.16,0.0557
0.41,0.96,0.09,3.51,-4.65,-11.06,-21.68,-17.29,-14.94,1.16,-0.4,-2.18,0.0558
0.43,0.95,0.08,4.84,-3.4,-7.41,-21.39,-17.58,-14.94,1.14,-0.43,-2.16,0.056
0.4,0.98,0.05,3.14,-3.29,-4.55,-20.51,-17.58,-14.36,1.18,-0.38,-2.14,0.0561
0.4,0.95,0.07,3.35,2.84,-0.85,-20.8,-16.7,-14.94,1.17,-0.4,-2.18,0.0562
0.45,0.96,0.08,4.74,-1.37,0.48,-20.51,-16.11,-15.23,1.13,-0.43,-2.19,0.0564
0.43,0.96,0.05,2.76,-8.69,0.03,-21.09,-16.99,-15.53,1.14,-0.42,-2.18,0.0565
0.42,0.94,0.09,4.61,1.46,3.68,-21.09,-16.41,-14.36,1.14,-0.42,-2.18,0.0566
0.44,0.96,0.04,2.4,-0.92,3.56,-21.09,-17.87,-14.94,1.14,-0.43,-2.14,0.0568
0.47,0.95,0.08,1.14,-5.11,2.34,-20.8,-17.58,-14.65,1.11,-0.46,-2.14,0.0569
0.47,0.94,0.09,1.49,-4.36,1.5,-21.97,-16.99,-15.82,1.1,-0.46,-2.19,0.057
0.45,0.95,0.06,1.72,0.11,2.32,-21.68,-17.58,-14.65,1.13,-0.44,-2.15,0.0572
0.47,0.95,0.04,0.23,-1.57,1.61,-21.39,-17.29,-14.36,1.11,-0.46,-2.15,0.0573
0.47,0.94,0.08,0.85,1.63,1.09,-21.39,-17.87,-14.65,1.11,-0.46,-2.14,0.0575
0.48,0.93,0.11,0.89,0.76,0.85,-20.8,-17.58,-14.36,1.09,-0.47,-2.13,0.0576
0.45,0.95,0.07,1.43,4.79,1.79,-20.51,-18.16,-14.36,1.12,-0.44,-2.11,0.0577
0.48,0.93,0.1,1.69,2.48,1.02,-20.8,-17.58,-15.23,1.08,-0.48,-2.14,0.0578
0.48,0.94,0.09,1.37,-4.65,-0.89,-21.39,-17.58,-14.65,1.09,-0.47,-2.14,0.058
0.46,0.94,0.09,2.0,0.69,0.18,-21.68,-17.29,-14.36,1.11,-0.45,-2.16,0.0581
0.47,0.94,0.08,1.7,1.05,0.58,-21.39,-17.58,-15.23,1.1,-0.46,-2.15,0.0583
0.46,0.94,0.08,1.37,2.53,0.94,-21.09,-17.58,-14.06,1.11,-0.45,-2.13,0.0584
0.47,0.93,0.1,1.78,-1.21,0.13,-21.68,-17.58,-15.53,1.09,-0.47,-2.16,0.0585
0.47,0.93,0.09,1.63,-2.26,-0.04,-21.39,-17.29,-15.23,1.1,-0.47,-2.16,0.0587
0.47,0.94,0.09,1.43,-2.53,0.0,-21.39,-17.29,-14.36,1.1,-0.46,-2.15,0.0588
0.47,0.93,0.1,1.56,-1.08,0.73,-20.8,-18.16,-14.94,1.09,-0.47,-2.12,0.0589
0.47,0.94,0.09,2.08,0.21,1.21,-20.8,-17.87,-14.94,1.09,-0.47,-2.13,0.0591
0.47,0.94,0.08,1.02,-0.64,0.98,-20.8,-17.58,-14.94,1.1,-0.46,-2.14,0.0592
0.47,0.93,0.12,2.09,-2.1,1.3,-21.09,-17.87,-14.36,1.08,-0.47,-2.13,0.0593
0.47,0.93,0.12,3.25,0.43,2.02,-20.8,-18.16,-14.94,1.09,-0.47,-2.13,0.0595
0.49,0.92,0.09,2.62,-1.97,1.82,-20.51,-17.58,-14.36,1.08,-0.48,-2.12,0.0596
0.5,0.94,0.07,1.16,-3.15,-0.18,-21.09,-18.16,-14.65,1.08,-0.49,-2.12,0.0597
0.48,0.93,0.08,1.27,3.77,0.07,-21.39,-18.16,-14.65,1.09,-0.47,-2.12,0.0599
0.49,0.92,0.1,0.18,-3.78,-0.12,-20.8,-17.58,-14.94,1.08,-0.48,-2.14,0.06
0.5,0.92,0.1,1.96,5.48,0.4,-20.8,-18.16,-14.65,1.07,-0.49,-2.11,0.0601
0.48,0.92,0.1,0.99,3.67,-0.59,-20.8,-17.29,-14.36,1.08,-0.48,-2.14,0.0603
0.48,0.92,0.11,1.88,7.47,0.08,-21.39,-18.16,-14.94,1.08,-0.48,-2.13,0.0604
0.48,0.93,0.11,1.5,5.9,0.66,-20.8,-17.58,-14.65,1.09,-0.47,-2.14,0.0605
0.48,0.92,0.12,2.13,3.69,0.91,-20.8,-18.16,-14.65,1.08,-0.48,-2.12,0.0607
0.47,0.93,0.12,2.33,3.56,1.46,-20.21,-16.99,-14.06,1.09,-0.47,-2.14,0.0608
0.47,0.92,0.13,1.45,-2.4,0.82,-21.39,-17.58,-14.65,1.08,-0.47,-2.15,0.0609
0.49,0.92,0.11,0.92,-2.35,-0.14,-21.09,-17.58,-14.65,1.07,-0.49,-2.14,0.0611
0.48,0.92,0.13,0.98,3.23,1.07,-21.09,-18.16,-14.94,1.08,-0.48,-2.13,0.0612
0.48,0.92,0.13,1.27,9.34,1.76,-20.51,-16.99,-14.94,1.08,-0.47,-2.16,0.0613
0.48,0.91,0.15,2.41,11.12,2.06,-21.09,-16.99,-14.36,1.07,-0.48,-2.16,0.0615
0.47,0.92,0.14,2.61,7.97,2.15,-20.8,-17.29,-14.06,1.08,-0.47,-2.14,0.0616
0.48,0.91,0.15,3.4,3.46,1.88,-20.21,-16.99,-14.36,1.07,-0.48,-2.15,0.0617
0.48,0.92,0.16,4.4,3.5,1.21,-20.8,-17.58,-14.36,1.07,-0.48,-2.14,0.0619
0.48,0.9,0.15,4.94,1.34,1.26,-20.8,-17.29,-14.65,1.06,-0.49,-2.15,0.062
0.48,0.92,0.13,4.49,2.19,1.16,-21.09,-17.29,-14.65,1.08,-0.47,-2.15,0.0621
0.56,0.87,0.14,2.66,-8.95,-3.19,-21.09,-17.58,-14.65,0.99,-0.56,-2.13,0.0623
0.45,0.94,0.12,3.11,6.6,-0.98,-20.8,-17.29,-14.94,1.12,-0.44,-2.16,0.0624
0.46,0.91,0.15,2.3,1.19,-0.39,-20.8,-17.58,-14.65,1.08,-0.46,-2.14,0.0625
0.47,0.91,0.16,4.14,-1.77,-1.19,-20.8,-16.99,-15.82,1.07,-0.47,-2.18,0.0627
0.47,0.92,0.14,3.76,-7.46,-0.99,-21.39,-16.7,-14.65,1.09,-0.46,-2.18,0.0628
0.48,0.91,0.15,3.17,-12.08,-1.91,-21.09,-18.75,-14.65,1.07,-0.48,-2.11,0.0629
0.46,0.92,0.13,3.95,-7.89,0.08,-21.09,-17.29,-14.06,1.09,-0.46,-2.15,0.0631
0.48,0.92,0.1,2.81,0.14,1.44,-20.8,-17.58,-14.94,1.08,-0.48,-2.14,0.0632
0.48,0.93,0.13,1.51,3.99,1.91,-21.68,-16.99,-14.65,1.08,-0.48,-2.17,0.0633
0.49,0.9,0.14,0.42,-1.08,0.46,-21.09,-17.29,-14.94,1.06,-0.49,-2.16,0.0635
0.5,0.92,0.12,0.15,-8.49,-3.05,-20.8,-17.29,-14.65,1.06,-0.49,-2.14,0.0636
0.48,0.91,0.16,1.35,-6.32,-3.56,-21.39,-17.87,-14.94,1.06,-0.48,-2.15,0.0637
0.48,0.91,0.14,2.94,-0.57,-2.09,-20.8,-18.16,-14.36,1.07,-0.48,-2.12,0.0639
0.47,0.92,0.14,5.0,3.81,-0.83,-20.51,-17.29,-14.65,1.08,-0.47,-2.15,0.064
0.46,0.92,0.14,5.99,3.67,-0.17,-21.09,-16.7,-14.36,1.08,-0.46,-2.17,0.0641
0.47,0.92,0.12,5.17,2.04,0.18,-21.39,-17.29,-15.23,1.09,-0.47,-2.17,0.0642
0.47,0.93,0.13,5.1,3.14,1.01,-21.09,-17.29,-14.36,1.09,-0.46,-2.15,0.0644
0.48,0.91,0.14,3.88,-4.75,-0.54,-20.51,-17.29,-14.36,1.07,-0.48,-2.14,0.0645
0.48,0.92,0.12,3.4,-10.28,-1.54,-21.68,-17.87,-15.23,1.07,-0.48,-2.15,0.0646
0.47,0.94,0.11,2.78,-8.59,-0.93,-21.39,-17.87,-14.36,1.09,-0.46,-2.13,0.0648
0.45,0.93,0.09,0.68,3.7,3.85,-20.8,-16.7,-14.36,1.11,-0.45,-2.16,0.0649
0.47,0.93,0.07,-1.92,14.27,7.35,-21.39,-18.16,-14.65,1.1,-0.46,-2.13,0.065
0.5,0.92,0.13,-3.41,9.19,5.0,-20.51,-17.29,-14.94,1.06,-0.5,-2.14,0.0651
0.52,0.89,0.17,-3.54,-8.61,-0.82,-21.39,-17.58,-14.94,1.01,-0.52,-2.15,0.0653
0.49,0.89,0.19,0.06,-1.64,-0.26,-20.8,-16.99,-14.36,1.04,-0.49,-2.16,0.0654
0.49,0.9,0.17,2.86,7.29,0.92,-21.09,-16.99,-14.36,1.05,-0.49,-2.16,0.0655
0.51,0.89,0.2,6.22,3.74,-1.0,-20.8,-17.29,-14.06,1.02,-0.51,-2.14,0.0657
0.5,0.9,0.16,7.26,-3.14,-3.16,-20.21,-17.29,-14.94,1.05,-0.5,-2.14,0.0658
0.48,0.92,0.12,5.93,-4.15,-3.32,-21.09,-17.58,-14.65,1.08,-0.48,-2.14,0.0659
0.47,0.92,0.14,6.07,-1.57,-1.98,-20.8,-16.7,-15.23,1.08,-0.47,-2.18,0.0661
0.47,0.91,0.14,6.64,-0.48,-0.94,-20.8,-17.58,-14.65,1.08,-0.47,-2.14,0.0662
0.47,0.92,0.12,5.55,-2.21,-0.87,-20.8,-17.29,-14.65,1.08,-0.47,-2.15,0.0663
0.47,0.92,0.11,4.76,0.21,1.01,-21.09,-16.99,-14.65,1.09,-0.47,-2.16,0.0665
0.48,0.92,0.12,2.53,-1.2,1.34,-21.09,-17.58,-14.65,1.08,-0.48,-2.14,0.0666
0.48,0.92,0.13,2.04,-3.16,1.72,-20.51,-18.16,-14.36,1.07,-0.48,-2.11,0.0667
0.49,0.92,0.12,1.31,-2.24,1.3,-21.09,-17.58,-14.36,1.07,-0.49,-2.13,0.0669
0.5,0.91,0.12,0.07,-3.72,0.29,-20.8,-17.29,-14.06,1.06,-0.5,-2.13,0.067
0.5,0.91,0.13,0.07,-4.32,-0.87,-21.68,-17.29,-14.06,1.05,-0.5,-2.15,0.0671
0.51,0.91,0.15,1.12,-5.46,-2.33,-20.51,-17.87,-14.94,1.04,-0.5,-2.13,0.0672
0.49,0.91,0.14,3.02,1.82,-1.08,-20.51,-17.29,-14.65,1.06,-0.49,-2.14,0.0674
0.5,0.91,0.14,4.5,6.67,-1.06,-21.09,-17.29,-15.53,1.05,-0.5,-2.16,0.0675
0.49,0.92,0.14,5.91,5.87,-1.63,-21.68,-17.29,-14.94,1.07,-0.48,-2.17,0.0676
0.49,0.91,0.14,5.73,2.8,-1.92,-21.09,-17.87,-15.23,1.06,-0.49,-2.14,0.0678
0.48,0.92,0.13,5.18,-3.02,-3.2,-21.09,-16.7,-14.65,1.07,-0.48,-2.17,0.0679
0.46,0.92,0.13,4.41,-4.81,-2.52,-21.09,-17.58,-14.65,1.09,-0.46,-2.15,0.068
0.46,0.93,0.1,3.03,-4.01,-0.63,-20.51,-16.7,-14.94,1.1,-0.46,-2.17,0.0682
0.46,0.92,0.11,2.57,0.98,2.16,-21.09,-17.58,-14.94,1.1,-0.46,-2.15,0.0683
0.46,0.93,0.11,1.87,7.4,5.49,-20.8,-16.99,-13.77,1.1,-0.46,-2.14,0.0684
0.49,0.92,0.12,0.92,5.85,5.46,-21.09,-17.29,-14.65,1.07,-0.48,-2.15,0.0685
0.52,0.9,0.15,1.71,-1.6,1.97,-21.09,-17.87,-14.65,1.03,-0.52,-2.13,0.0687
0.53,0.89,0.16,3.33,-10.6,-2.6,-20.51,-17.58,-14.94,1.02,-0.53,-2.13,0.0688
0.51,0.91,0.14,4.7,-15.25,-5.38,-21.09,-18.16,-14.36,1.04,-0.51,-2.12,0.0689
0.49,0.92,0.11,5.58,-7.64,-4.78,-20.8,-18.16,-15.23,1.07,-0.49,-2.13,0.0691
0.48,0.92,0.09,5.08,2.25,-2.56,-21.09,-17.87,-14.65,1.08,-0.48,-2.13,0.0692
0.47,0.93,0.1,4.25,9.15,-0.18,-21.39,-17.87,-15.82,1.09,-0.47,-2.15,0.0693
0.47,0.93,0.12,4.91,11.12,1.75,-21.39,-16.7,-15.53,1.09,-0.47,-2.19,0.0695
0.49,0.94,0.08,5.65,6.32,1.54,-21.39,-17.29,-15.53,1.08,-0.48,-2.16,0.0696
0.47,0.95,0.06,3.71,1.55,2.3,-20.8,-16.7,-14.65,1.11,-0.46,-2.16,0.0697
0.45,0.93,0.11,4.82,-0.77,6.08,-21.39,-17.29,-14.36,1.11,-0.45,-2.15,0.0699
0.46,0.94,0.14,6.38,-3.94,9.57,-21.39,-17.58,-15.23,1.1,-0.45,-2.16,0.07
0.52,0.95,0.12,5.47,-30.82,7.37,-21.39,-17.87,-15.23,1.05,-0.5,-2.14,0.0701
0.53,0.93,0.08,3.81,-40.94,11.06,-21.68,-18.75,-14.65,1.05,-0.51,-2.1,0.0703
0.64,0.95,0.23,26.59,-37.22,2.91,-21.39,-19.04,-14.36,0.95,-0.58,-2.09,0.0704
0.55,0.86,0.45,35.75,-60.61,-10.6,-21.97,-19.63,-14.94,0.88,-0.52,-2.17,0.0705
0.47,0.68,0.1,-31.91,-44.03,-31.02,-21.09,-19.63,-14.94,0.95,-0.6,-2.06,0.0707
0.29,0.7,-0.2,-109.66,43.14,-0.82,-18.75,-19.92,-12.89,1.11,-0.37,-2.07,0.0708
0.48,0.78,0.5,-146.24,-33.15,-11.01,-15.82,-20.8,-9.67,0.84,-0.48,-1.97,0.071
0.64,0.64,0.62,-127.85,11.73,-5.8,-13.48,-19.63,-8.5,0.63,-0.63,-1.95,0.0711
0.78,0.61,0.48,-25.55,14.04,-34.61,-11.72,-19.92,-10.25,0.59,-0.79,-1.84,0.0712
0.65,0.63,0.14,-2.38,3.72,-60.44,-11.43,-19.04,-12.01,0.76,-0.78,-1.79,0.0714
-0.17,1.53,0.25,100.3,133.93,-28.74,-12.01,-17.87,-12.6,1.38,0.11,-2.36,0.0715
0.8,1.09,-0.06,47.96,-103.82,-35.02,-13.48,-18.16,-12.6,0.94,-0.63,-1.9,0.0716
0.22,0.84,0.3,58.88,6.87,-5.35,-13.18,-17.58,-12.89,1.16,-0.24,-2.14,0.0718
0.29,0.94,0.24,48.62,-23.2,-9.91,-14.65,-18.16,-13.77,1.19,-0.29,-2.11,0.0719
0.32,0.99,-0.09,25.45,-39.48,-11.24,-14.94,-18.46,-14.36,1.25,-0.31,-2.08,0.072
0.35,0.97,0.04,19.78,-39.63,-4.68,-14.65,-19.34,-13.77,1.22,-0.35,-2.02,0.0722
0.27,0.99,0.0,22.77,4.39,8.69,-15.23,-19.34,-14.36,1.31,-0.26,-2.08,0.0723
0.2,1.03,0.01,23.18,21.97,18.49,-15.23,-19.63,-14.65,1.38,-0.19,-2.12,0.0725
0.19,1.03,-0.08,16.47,14.32,29.24,-14.94,-19.34,-14.94,1.37,-0.19,-2.14,0.0726
0.62,0.89,0.09,11.25,-42.7,18.7,-15.82,-19.92,-15.23,0.96,-0.6,-1.95,0.0727
0.54,0.95,0.09,3.45,-88.42,3.91,-14.94,-21.68,-14.94,1.05,-0.52,-1.92,0.0728
0.48,1.0,-0.05,3.35,-31.22,4.75,-15.82,-21.68,-14.94,1.12,-0.45,-1.96,0.073
0.73,0.91,-0.14,-33.08,-98.86,-13.42,-15.23,-22.56,-14.94,0.89,-0.67,-1.85,0.0731
0.2,0.94,0.04,-33.13,-41.54,-2.53,-14.65,-22.56,-14.94,1.36,-0.21,-2.04,0.0733
0.33,0.84,0.05,-18.39,46.01,4.44,-14.65,-23.14,-15.23,1.19,-0.37,-1.95,0.0734
0.66,1.04,-0.39,-10.49,-94.28,-15.39,-14.06,-22.56,-15.53,0.94,-0.54,-1.92,0.0735
0.43,1.0,-0.17,-14.85,-52.25,-15.08,-14.36,-23.44,-15.82,1.13,-0.4,-1.95,0.0737
0.48,0.97,-0.05,-3.14,9.41,-2.95,-14.94,-22.85,-15.82,1.11,-0.46,-1.93,0.0738
0.45,0.98,-0.05,-1.94,25.06,0.04,-14.36,-22.85,-15.82,1.14,-0.43,-1.93,0.0739
0.45,1.0,-0.04,-5.29,13.02,-2.69,-14.94,-23.14,-15.53,1.14,-0.42,-1.93,0.0741
0.45,0.95,0.07,-3.92,4.44,-3.25,-14.36,-22.85,-16.11,1.12,-0.44,-1.93,0.0742
0.44,0.96,0.04,-0.47,6.11,-2.93,-14.36,-22.56,-14.94,1.14,-0.43,-1.92,0.0743
0.43,0.98,0.02,0.66,5.51,-2.53,-13.77,-22.27,-15.53,1.16,-0.41,-1.94,0.0744
0.43,0.96,0.05,3.25,2.34,-3.49,-14.94,-21.97,-14.65,1.14,-0.43,-1.94,0.0746
0.43,0.97,0.05,5.42,-0.17,-3.14,-14.94,-22.27,-15.53,1.15,-0.42,-1.96,0.0747
0.42,0.98,0.04,5.78,-4.54,-3.01,-13.77,-22.27,-15.82,1.17,-0.4,-1.95,0.0748
0.43,0.97,0.02,6.52,-5.39,-3.27,-14.36,-22.27,-14.94,1.16,-0.41,-1.94,0.075
0.42,0.98,0.02,6.16,-8.25,-3.27,-14.36,-22.85,-15.53,1.17,-0.41,-1.94,0.0751
0.42,0.98,-0.01,5.63,-7.46,-3.2,-14.65,-23.14,-15.23,1.17,-0.4,-1.93,0.0752
0.42,0.98,-0.01,5.14,-4.42,-2.5,-14.94,-22.56,-15.53,1.17,-0.4,-1.95,0.0754
0.41,0.99,-0.0,4.95,-2.18,-1.54,-14.65,-22.56,-15.53,1.17,-0.4,-1.96,0.0755
0.42,0.99,-0.01,3.81,-3.07,-1.51,-14.06,-22.27,-15.53,1.17,-0.4,-1.95,0.0756
0.42,0.98,-0.02,3.38,-0.31,-1.01,-14.36,-22.56,-15.82,1.17,-0.4,-1.96,0.0758
0.42,0.98,-0.02,2.63,0.33,-0.92,-14.65,-22.27,-15.23,1.17,-0.4,-1.95,0.0759
0.41,0.99,-0.01,1.86,0.66,-0.73,-14.36,-22.56,-15.82,1.18,-0.39,-1.96,0.076
0.41,0.99,-0.01,1.41,1.12,-0.21,-14.65,-22.27,-14.65,1.18,-0.4,-1.94,0.0762
0.41,0.98,0.0,1.38,-0.37,-0.5,-13.48,-22.27,-15.53,1.17,-0.4,-1.95,0.0763
0.41,0.99,-0.0,1.43,-1.16,-0.19,-13.48,-22.56,-14.94,1.17,-0.4,-1.93,0.0764
0.41,0.98,0.0,1.49,-0.71,0.04,-14.06,-22.27,-15.23,1.17,-0.4,-1.95,0.0766
0.42,0.98,0.01,2.14,-0.57,-0.02,-14.65,-21.97,-15.23,1.17,-0.4,-1.96,0.0767
0.41,0.98,-0.01,2.63,1.01,0.27,-14.36,-22.27,-15.23,1.17,-0.4,-1.95,0.0768
0.41,0.99,0.01,2.81,-0.46,-0.15,-15.23,-21.68,-16.11,1.18,-0.39,-2.0,0.0769
0.42,0.98,0.0,3.66,1.16,-0.19,-14.36,-22.56,-15.82,1.17,-0.4,-1.96,0.0771
0.42,0.99,-0.0,3.6,1.16,0.09,-14.65,-22.56,-15.53,1.17,-0.4,-1.95,0.0772
0.42,0.98,-0.0,3.58,1.3,-0.03,-14.65,-22.56,-15.82,1.17,-0.4,-1.96,0.0773
0.41,0.98,-0.0,3.51,1.42,-0.04,-14.36,-22.56,-15.82,1.17,-0.4,-1.96,0.0775
0.41,0.99,0.0,2.79,0.79,0.3,-14.65,-23.14,-14.94,1.17,-0.4,-1.93,0.0776
0.41,0.98,0.01,3.12,1.07,-0.01,-14.65,-21.97,-14.94,1.17,-0.4,-1.96,0.0777
0.41,0.98,0.0,2.74,-0.98,-0.24,-14.65,-22.56,-15.23,1.17,-0.4,-1.95,0.0778
0.41,0.98,0.0,2.13,-2.01,-0.63,-14.06,-22.85,-15.23,1.17,-0.4,-1.93,0.078
0.41,0.98,-0.0,2.4,-0.68,-0.15,-14.36,-21.97,-15.53,1.17,-0.4,-1.96,0.0781
0.42,0.98,-0.0,2.58,-2.04,-0.51,-14.36,-22.56,-14.94,1.17,-0.4,-1.94,0.0782
0.41,0.98,0.01,4.75,-4.22,1.55,-14.65,-22.85,-15.23,1.17,-0.4,-1.94,0.0784
0.42,0.98,-0.0,1.82,-6.15,-0.23,-15.23,-22.56,-15.82,1.16,-0.41,-1.96,0.0785
0.41,0.98,-0.0,2.59,-2.2,-0.48,-14.65,-22.27,-15.53,1.17,-0.4,-1.96,0.0786
0.42,0.97,0.01,2.9,-3.78,-0.29,-14.65,-22.56,-15.53,1.16,-0.41,-1.95,0.0787
0.42,0.98,0.01,5.18,-10.47,-2.46,-14.65,-23.14,-15.53,1.16,-0.41,-1.93,0.0789
0.42,0.98,0.01,7.83,-11.34,-3.61,-14.65,-22.56,-15.82,1.17,-0.4,-1.96,0.079
0.45,0.97,-0.0,4.67,-35.33,-6.26,-15.23,-22.56,-15.82,1.14,-0.43,-1.95,0.0791
0.4,0.99,-0.02,3.21,-34.47,-6.42,-14.36,-22.85,-15.23,1.19,-0.38,-1.95,0.0793
0.43,1.0,-0.06,2.12,-37.76,-6.83,-14.36,-23.44,-15.53,1.16,-0.41,-1.93,0.0794
0.41,1.0,-0.09,3.53,-24.51,-3.67,-14.06,-24.02,-16.7,1.18,-0.38,-1.95,0.0795
0.42,0.99,-0.07,2.29,-31.77,-6.01,-14.94,-23.73,-16.41,1.16,-0.4,-1.95,0.0797
0.42,1.01,-0.09,3.84,-15.65,-3.43,-15.23,-24.02,-16.99,1.17,-0.39,-1.97,0.0798
0.42,1.01,-0.12,6.37,-0.17,-4.06,-14.65,-24.02,-16.7,1.16,-0.39,-1.95,0.0799
0.44,0.99,-0.06,4.54,-19.49,-4.26,-14.94,-24.32,-16.7,1.15,-0.41,-1.94,0.0801
0.43,1.0,-0.11,4.93,-23.03,-6.58,-14.36,-24.32,-16.99,1.15,-0.4,-1.94,0.0802
0.41,1.0,-0.09,5.25,-25.55,-6.77,-14.94,-24.61,-16.99,1.17,-0.39,-1.95,0.0803
0.42,0.99,-0.13,4.73,-20.55,-6.07,-14.36,-24.61,-16.7,1.16,-0.4,-1.94,0.0804
0.43,1.0,-0.12,4.09,-10.6,-4.07,-14.06,-24.32,-17.87,1.15,-0.4,-1.96,0.0806
0.34,1.04,-0.23,2.91,-2.05,-0.98,-14.36,-24.9,-17.87,1.2,-0.31,-2.02,0.0807
0.4,1.0,-0.12,-0.51,-8.08,-2.4,-15.53,-24.32,-18.75,1.17,-0.38,-2.01,0.0808
0.4,1.01,-0.13,2.39,5.68,-0.07,-14.94,-24.9,-16.99,1.17,-0.37,-1.96,0.081
0.39,1.02,-0.16,-1.85,1.41,-1.37,-14.94,-24.61,-16.99,1.18,-0.36,-1.98,0.0811
0.35,1.01,-0.18,-0.52,13.41,-0.19,-14.65,-23.73,-16.99,1.2,-0.33,-2.01,0.0812
0.4,1.01,-0.15,0.24,38.79,4.71,-16.11,-23.73,-16.7,1.17,-0.38,-1.99,0.0813
0.42,1.0,-0.11,-1.85,42.43,4.37,-14.65,-24.32,-16.41,1.16,-0.39,-1.94,0.0815
0.41,1.0,-0.07,-4.14,35.45,2.84,-15.23,-23.73,-16.7,1.18,-0.39,-1.97,0.0816
0.38,1.0,-0.06,-3.71,34.63,2.97,-14.65,-23.44,-15.53,1.2,-0.36,-1.95,0.0817
0.37,0.99,-0.04,-1.49,41.75,5.49,-14.36,-23.14,-16.11,1.22,-0.35,-1.98,0.0819
0.37,0.99,-0.01,-1.01,43.67,6.76,-14.36,-22.56,-15.23,1.22,-0.35,-1.97,0.082
0.36,0.99,0.0,-0.28,44.65,8.87,-14.06,-21.97,-15.82,1.22,-0.35,-1.99,0.0821
0.39,0.99,0.04,-0.37,38.91,8.97,-14.65,-21.39,-15.23,1.2,-0.37,-1.99,0.0822
0.37,0.98,0.03,-1.07,37.25,8.16,-14.65,-21.09,-14.36,1.21,-0.36,-1.98,0.0823
0.37,0.98,0.05,-2.11,30.83,7.22,-14.06,-21.39,-14.65,1.2,-0.36,-1.97,0.0825
0.35,0.99,0.06,-3.07,28.1,7.71,-14.94,-20.8,-14.94,1.23,-0.34,-2.02,0.0826
0.38,0.96,0.1,-2.19,21.47,7.0,-13.77,-19.92,-15.23,1.18,-0.37,-2.02,0.0827
0.4,0.96,0.13,-1.84,4.59,2.45,-14.06,-20.21,-14.65,1.15,-0.4,-1.99,0.0829
0.38,0.95,0.13,-0.02,-4.01,-0.3,-13.77,-20.21,-14.94,1.17,-0.38,-2.01,0.083
0.38,0.96,0.11,1.02,-7.69,-1.62,-14.06,-21.09,-14.65,1.18,-0.37,-1.98,0.0831
0.38,0.96,0.11,2.16,-11.35,-2.23,-13.48,-20.51,-14.36,1.18,-0.38,-1.98,0.0833
0.38,0.96,0.11,3.16,-10.95,-2.3,-13.77,-21.09,-15.53,1.18,-0.37,-2.0,0.0834
0.38,0.96,0.11,3.59,-14.55,-3.05,-14.36,-21.39,-15.23,1.18,-0.38,-1.99,0.0835
0.39,0.96,0.09,4.36,-18.18,-4.28,-13.48,-21.09,-14.65,1.18,-0.38,-1.97,0.0836
0.39,0.96,0.08,5.1,-19.44,-4.54,-13.77,-21.39,-14.94,1.18,-0.38,-1.97,0.0838
0.39,0.97,0.07,5.46,-19.27,-4.71,-14.06,-21.39,-14.94,1.18,-0.38,-1.97,0.0839
0.38,0.97,0.06,4.84,-19.63,-4.91,-13.48,-21.68,-15.53,1.19,-0.38,-1.97,0.084
0.39,0.97,0.06,3.4,-21.85,-5.72,-14.06,-21.68,-15.53,1.18,-0.38,-1.98,0.0842
0.38,0.98,0.03,3.94,-14.43,-3.7,-14.36,-22.27,-14.65,1.2,-0.37,-1.95,0.0843
0.38,0.98,0.03,4.2,-3.73,-0.86,-14.36,-21.97,-15.82,1.2,-0.37,-1.99,0.0844
0.39,0.98,0.01,4.51,4.14,1.37,-14.36,-21.68,-14.65,1.19,-0.38,-1.96,0.0846
0.39,0.98,0.04,4.45,3.19,1.5,-13.48,-21.97,-15.23,1.19,-0.38,-1.96,0.0847
0.41,0.97,0.04,4.33,-3.72,-0.4,-14.65,-22.56,-14.94,1.17,-0.4,-1.94,0.0848
0.4,0.98,0.03,3.65,-6.98,-0.31,-14.36,-21.97,-15.23,1.18,-0.39,-1.96,0.085
0.4,0.97,0.02,3.2,-8.46,-0.7,-14.06,-22.85,-14.94,1.18,-0.39,-1.93,0.0851
0.39,0.99,0.01,2.99,2.93,1.67,-14.06,-22.27,-15.82,1.2,-0.37,-1.97,0.0852
0.39,0.98,-0.01,1.79,15.3,4.5,-14.36,-21.68,-14.94,1.19,-0.38,-1.97,0.0853
0.4,0.98,0.01,1.07,21.92,4.35,-14.06,-21.39,-15.23,1.18,-0.39,-1.97,0.0855
0.41,0.97,0.05,0.4,19.25,4.24,-13.77,-21.97,-14.06,1.17,-0.4,-1.92,0.0856
0.39,0.97,0.05,0.51,20.42,4.11,-14.06,-20.8,-15.23,1.19,-0.38,-1.99,0.0857
0.4,0.96,0.08,-0.03,12.42,2.23,-13.48,-21.39,-14.65,1.17,-0.4,-1.95,0.0858
0.4,0.96,0.1,0.76,3.89,1.41,-13.77,-20.8,-14.94,1.17,-0.39,-1.98,0.086
0.4,0.96,0.09,2.64,3.36,1.21,-13.48,-21.09,-14.94,1.17,-0.39,-1.97,0.0861
0.4,0.97,0.06,2.13,-2.67,-0.76,-14.36,-21.68,-14.94,1.17,-0.39,-1.96,0.0862
0.41,0.96,0.07,1.67,-3.22,-0.97,-14.06,-21.39,-14.94,1.17,-0.4,-1.96,0.0863
0.4,0.97,0.09,2.61,-3.28,-1.11,-13.18,-20.8,-14.65,1.17,-0.39,-1.97,0.0864
0.4,0.96,0.1,3.47,-6.96,-1.77,-13.77,-21.09,-14.94,1.17,-0.39,-1.97,0.0866
0.4,0.97,0.08,4.01,-7.16,-1.61,-14.36,-21.68,-14.94,1.17,-0.39,-1.96,0.0867
0.4,0.97,0.06,3.64,-5.7,-1.24,-14.06,-21.97,-15.53,1.17,-0.39,-1.97,0.0868
0.41,0.97,0.06,4.07,-5.35,-1.43,-13.77,-21.68,-14.94,1.17,-0.4,-1.95,0.0869
0.41,0.97,0.07,4.03,-6.13,-1.43,-13.77,-21.68,-14.94,1.17,-0.4,-1.95,0.0871
0.4,0.97,0.06,4.45,-7.61,-1.95,-14.36,-21.97,-15.53,1.17,-0.39,-1.97,0.0872
0.4,0.97,0.05,4.07,-5.75,-1.21,-14.36,-21.97,-15.53,1.18,-0.39,-1.97,0.0873
0.41,0.97,0.04,4.08,-5.17,-1.4,-14.36,-21.97,-15.53,1.17,-0.4,-1.96,0.0874
0.4,0.98,0.03,3.93,-3.67,-1.27,-14.36,-21.97,-14.65,1.18,-0.39,-1.95,0.0876
0.41,0.97,0.05,4.1,-3.73,-0.98,-14.36,-22.27,-15.53,1.17,-0.4,-1.96,0.0877
0.4,0.97,0.05,4.29,-0.79,-0.06,-14.36,-21.97,-14.94,1.18,-0.39,-1.96,0.0878
0.4,0.98,0.03,4.4,2.43,0.61,-14.65,-21.39,-14.65,1.18,-0.39,-1.97,0.088
0.4,0.98,0.02,3.79,4.61,1.31,-15.23,-21.68,-15.23,1.18,-0.39,-1.98,0.0881
0.4,0.99,0.06,7.81,5.49,-0.74,-14.36,-21.97,-14.36,1.18,-0.38,-1.95,0.0882
0.4,0.96,0.01,2.57,9.3,-1.0,-14.65,-21.68,-14.65,1.18,-0.39,-1.96,0.0883
0.41,0.96,0.07,3.02,2.77,0.72,-14.06,-21.68,-15.23,1.16,-0.4,-1.96,0.0885
0.41,0.98,0.02,2.78,2.92,0.74,-14.06,-21.39,-15.23,1.17,-0.4,-1.97,0.0886
0.41,0.97,0.03,1.02,-2.43,-0.13,-14.36,-21.97,-14.94,1.17,-0.4,-1.95,0.0887
0.4,0.98,0.06,0.7,-1.9,-0.29,-14.06,-22.27,-14.65,1.18,-0.39,-1.94,0.0888
0.41,0.97,0.04,0.89,-3.85,-0.46,-15.23,-21.39,-14.65,1.17,-0.39,-1.97,0.089
0.4,0.97,0.05,-0.22,-6.33,-0.02,-14.94,-21.68,-14.65,1.17,-0.39,-1.96,0.0891
0.4,0.98,0.05,0.28,-2.95,0.39,-13.18,-21.68,-15.23,1.18,-0.39,-1.95,0.0892
0.41,0.97,0.03,0.32,-2.55,0.02,-14.06,-21.97,-14.94,1.17,-0.4,-1.95,0.0893
0.41,0.98,0.04,0.08,-0.74,0.23,-14.65,-22.56,-15.23,1.17,-0.39,-1.95,0.0895
0.41,0.97,0.06,0.98,0.59,0.37,-14.06,-21.97,-14.94,1.17,-0.4,-1.95,0.0896
0.41,0.97,0.06,0.83,0.01,0.2,-14.06,-21.97,-15.23,1.16,-0.4,-1.95,0.0897
0.42,0.97,0.07,1.18,-2.28,-0.4,-14.65,-21.68,-15.23,1.16,-0.4,-1.97,0.0898
0.41,0.96,0.06,1.72,0.53,0.18,-13.48,-21.68,-14.65,1.16,-0.4,-1.94,0.09
0.42,0.96,0.06,2.02,-0.25,-0.1,-14.36,-21.39,-14.65,1.15,-0.41,-1.95,0.0901
0.41,0.96,0.06,2.69,2.53,0.79,-14.06,-21.68,-14.65,1.16,-0.4,-1.95,0.0902
0.41,0.96,0.07,2.76,1.68,0.36,-14.06,-21.97,-14.65,1.16,-0.41,-1.94,0.0903
0.43,0.96,0.06,3.12,0.02,-0.26,-14.36,-21.39,-15.23,1.15,-0.42,-1.96,0.0905
0.42,0.96,0.07,3.58,-0.04,-0.79,-13.77,-21.97,-15.53,1.16,-0.41,-1.95,0.0906
0.41,0.96,0.07,3.79,-1.11,-0.96,-13.48,-21.97,-14.94,1.16,-0.41,-1.94,0.0907
0.41,0.96,0.06,3.81,-1.97,-1.11,-14.36,-21.97,-14.65,1.16,-0.4,-1.94,0.0908
0.41,0.97,0.06,4.04,-2.89,-1.27,-13.48,-21.39,-15.23,1.16,-0.4,-1.96,0.091
0.42,0.97,0.06,4.1,-6.2,-2.0,-13.77,-21.68,-14.94,1.16,-0.41,-1.95,0.0911
0.41,0.97,0.05,4.43,-4.79,-1.24,-14.65,-21.39,-15.23,1.17,-0.4,-1.98,0.0912
0.42,0.97,0.04,4.12,-4.42,-1.2,-14.06,-22.27,-15.23,1.16,-0.41,-1.94,0.0913
0.41,0.98,0.04,3.17,-2.45,-0.53,-14.06,-21.39,-14.94,1.17,-0.4,-1.96,0.0915
0.41,0.97,0.04,3.11,1.34,0.74,-14.36,-21.97,-14.94,1.17,-0.4,-1.95,0.0916
0.41,0.97,0.04,2.67,3.46,1.41,-14.06,-21.97,-14.65,1.17,-0.4,-1.94,0.0917
0.42,0.97,0.05,2.25,5.52,1.5,-13.77,-21.39,-14.94,1.16,-0.41,-1.95,0.0919
0.43,0.97,0.05,1.96,4.5,1.25,-14.94,-21.39,-14.94,1.15,-0.42,-1.97,0.092
0.42,0.97,0.07,2.35,4.57,0.52,-13.77,-21.39,-14.65,1.16,-0.41,-1.95,0.0921
0.42,0.96,0.06,2.47,6.29,1.1,-13.77,-21.39,-15.23,1.16,-0.41,-1.96,0.0922
0.42,0.96,0.05,1.91,5.58,0.7,-14.36,-21.68,-14.65,1.16,-0.41,-1.95,0.0924
0.42,0.96,0.07,1.23,3.65,0.14,-14.36,-20.8,-15.23,1.16,-0.41,-1.98,0.0925
0.42,0.97,0.07,1.48,3.4,-0.21,-13.77,-21.09,-14.65,1.16,-0.41,-1.96,0.0926
0.41,0.97,0.06,1.22,3.45,0.48,-13.48,-21.39,-14.06,1.17,-0.4,-1.93,0.0927
0.42,0.96,0.06,0.88,2.82,-0.07,-14.06,-21.09,-14.65,1.16,-0.41,-1.96,0.0928
0.41,0.96,0.09,1.65,1.56,-0.17,-13.77,-21.39,-14.36,1.16,-0.4,-1.95,0.093
0.4,0.96,0.08,2.12,4.01,1.9,-14.36,-21.39,-14.36,1.17,-0.4,-1.96,0.0931
0.41,0.96,0.07,2.23,3.77,1.82,-14.06,-21.39,-15.53,1.16,-0.4,-1.97,0.0932
0.44,0.95,0.12,2.98,-10.22,-1.5,-14.06,-21.68,-15.23,1.12,-0.43,-1.95,0.0933
0.42,0.95,0.1,4.12,-13.92,-3.16,-13.77,-21.39,-14.94,1.14,-0.42,-1.95,0.0935
0.41,0.96,0.07,4.68,-5.58,-1.91,-13.77,-21.97,-14.65,1.17,-0.4,-1.94,0.0936
0.4,0.96,0.05,4.51,1.31,-0.38,-14.94,-21.68,-14.65,1.17,-0.39,-1.96,0.0937
0.42,0.97,0.08,4.64,1.11,-0.03,-14.06,-20.8,-14.94,1.16,-0.41,-1.98,0.0938
0.42,0.96,0.07,4.54,-0.29,0.17,-14.65,-21.97,-14.65,1.16,-0.41,-1.95,0.094
0.41,0.96,0.04,4.37,4.31,1.49,-14.06,-21.68,-14.65,1.17,-0.4,-1.95,0.0941
0.42,0.97,0.04,3.56,5.89,1.75,-13.77,-21.68,-14.65,1.16,-0.41,-1.94,0.0942
0.43,0.95,0.08,2.85,3.94,1.69,-14.06,-21.68,-14.65,1.14,-0.42,-1.94,0.0943
0.41,0.96,0.07,3.98,10.39,3.56,-14.06,-21.97,-14.94,1.16,-0.4,-1.95,0.0945
0.41,0.97,0.05,2.75,12.09,5.06,-14.06,-21.68,-14.65,1.17,-0.4,-1.95,0.0946
0.41,0.97,0.06,1.63,12.53,6.37,-14.06,-21.09,-15.53,1.17,-0.4,-1.98,0.0947
0.42,0.96,0.05,0.52,16.2,7.77,-14.06,-20.51,-14.65,1.15,-0.41,-1.97,0.0948
0.41,0.96,0.08,0.59,19.13,9.39,-13.77,-21.39,-14.06,1.16,-0.4,-1.94,0.095
0.44,0.95,0.09,0.34,11.89,8.58,-13.48,-20.8,-14.65,1.13,-0.43,-1.95,0.0951
0.45,0.94,0.16,0.6,-0.19,5.82,-13.77,-21.09,-14.94,1.1,-0.44,-1.96,0.0952
0.45,0.94,0.17,4.01,-9.57,4.68,-13.77,-20.21,-14.36,1.1,-0.44,-1.96,0.0953
0.48,0.93,0.14,6.95,-16.87,2.58,-13.77,-21.09,-15.23,1.08,-0.47,-1.94,0.0955
0.48,0.94,0.12,7.58,-32.17,-0.81,-14.06,-21.68,-14.65,1.08,-0.47,-1.92,0.0956
0.47,0.94,0.08,10.83,-33.33,-1.7,-13.18,-21.97,-14.94,1.1,-0.46,-1.9,0.0957
0.48,0.94,0.03,9.27,-48.12,-3.78,-14.06,-23.14,-14.65,1.1,-0.47,-1.88,0.0959
0.51,0.96,-0.01,10.11,-50.12,-4.6,-14.65,-23.73,-15.53,1.08,-0.49,-1.88,0.096
0.51,0.96,-0.03,13.37,-44.72,-4.43,-14.06,-22.85,-15.53,1.08,-0.49,-1.89,0.0961
0.53,0.97,-0.02,16.42,-45.03,-6.52,-14.65,-23.73,-15.82,1.07,-0.5,-1.89,0.0963
0.54,1.01,-0.03,24.2,-46.49,-9.8,-14.94,-24.61,-15.82,1.08,-0.49,-1.87,0.0964
0.5,0.93,-0.1,-13.19,-47.43,-31.51,-14.36,-24.32,-16.11,1.07,-0.49,-1.88,0.0965
0.45,0.94,-0.18,-67.76,-84.17,-29.82,-14.65,-24.9,-16.11,1.1,-0.44,-1.91,0.0967
0.35,0.82,0.05,-100.96,-56.21,-21.32,-13.48,-25.2,-16.41,1.16,-0.4,-1.9,0.0968
0.29,0.87,0.28,-88.03,-2.11,-15.56,-12.6,-25.2,-15.23,1.14,-0.31,-1.95,0.0969
0.31,0.93,0.36,8.54,-92.32,6.14,-12.3,-24.9,-16.11,1.09,-0.3,-1.99,0.0971
0.57,1.24,0.26,50.3,30.86,-21.26,-12.01,-24.61,-16.7,1.1,-0.42,-1.9,0.0972
0.78,1.12,-0.24,-4.5,-37.51,-9.01,-13.18,-24.9,-17.58,0.94,-0.6,-1.83,0.0973
0.33,0.83,0.18,15.03,-28.45,-13.03,-13.77,-25.2,-17.87,1.14,-0.37,-1.97,0.0975
0.31,0.98,0.09,17.46,9.22,-13.24,-14.36,-24.32,-18.16,1.25,-0.31,-2.02,0.0976
0.29,0.95,0.11,12.02,41.3,-6.22,-13.48,-25.49,-17.29,1.26,-0.29,-1.99,0.0977
0.28,0.96,0.16,6.58,0.96,0.76,-13.77,-25.2,-17.58,1.24,-0.28,-2.01,0.0978
0.24,0.98,0.12,-16.41,-56.16,0.42,-14.36,-24.9,-18.16,1.3,-0.24,-2.06,0.098
0.25,0.98,0.13,10.37,47.81,18.42,-14.06,-25.49,-18.16,1.29,-0.25,-2.04,0.0981
0.24,0.97,0.08,-16.38,-15.07,27.37,-13.18,-25.2,-17.29,1.32,-0.24,-2.02,0.0982
0.25,0.98,0.05,-20.68,-13.83,45.02,-12.3,-25.49,-17.58,1.32,-0.25,-2.0,0.0984
0.57,0.95,-0.06,-32.28,-51.31,48.64,-12.3,-26.37,-17.29,1.03,-0.54,-1.8,0.0985
0.61,1.08,-0.07,-33.26,-62.32,53.0,-11.13,-28.12,-17.29,1.05,-0.51,-1.77,0.0986
0.51,1.02,0.1,6.54,-35.0,22.2,-9.96,-27.54,-16.7,1.1,-0.46,-1.78,0.0988
0.57,0.75,0.51,-17.93,9.8,-17.54,-10.55,-27.83,-15.23,0.77,-0.56,-1.76,0.0989
0.19,0.81,0.42,56.39,94.39,-35.13,-10.55,-27.54,-14.65,1.06,-0.21,-1.97,0.099
0.7,0.77,0.43,82.06,22.62,-81.89,-12.89,-26.66,-14.36,0.75,-0.67,-1.76,0.0991
0.85,0.67,0.3,4.7,3.59,-125.64,-13.48,-26.37,-14.36,0.64,-0.86,-1.73,0.0993
0.97,0.74,0.11,-30.6,-182.77,-54.05,-14.36,-27.54,-16.11,0.65,-0.91,-1.71,0.0994
0.28,0.96,0.29,-1.21,21.91,4.66,-14.06,-28.71,-16.11,1.17,-0.27,-1.95,0.0996
0.12,0.89,0.35,14.95,14.96,14.44,-14.65,-28.42,-15.82,1.18,-0.12,-2.08,0.0997
0.15,0.93,0.26,24.04,34.61,8.54,-13.18,-27.54,-16.7,1.26,-0.15,-2.06,0.0998
0.49,0.98,-0.03,17.41,-31.59,-9.7,-14.36,-27.25,-17.29,1.11,-0.46,-1.86,0.0999
0.49,1.04,-0.21,16.23,43.0,-12.32,-14.65,-28.42,-16.41,1.1,-0.43,-1.85,0.1001
0.28,0.94,0.18,-6.48,-80.02,-21.17,-14.65,-28.42,-18.75,1.23,-0.28,-1.99,0.1002
0.2,1.0,0.13,15.86,17.65,3.19,-14.36,-27.83,-17.58,1.34,-0.19,-2.02,0.1003
0.46,0.98,-0.04,9.36,9.97,-1.6,-14.94,-27.54,-18.16,1.14,-0.43,-1.89,0.1004
0.36,0.99,-0.03,-0.24,-18.74,-4.81,-15.23,-27.54,-18.75,1.22,-0.35,-1.95,0.1006
0.32,1.0,-0.06,3.15,11.84,2.1,-15.53,-27.54,-18.75,1.26,-0.31,-1.98,0.1007
0.34,1.01,-0.05,-2.33,4.7,1.54,-15.23,-28.12,-18.16,1.24,-0.32,-1.94,0.1008
0.35,0.98,0.06,-2.37,3.3,1.22,-15.23,-27.83,-18.16,1.22,-0.34,-1.94,0.101
0.39,0.96,0.13,1.42,0.28,-0.63,-13.77,-28.12,-17.87,1.17,-0.38,-1.9,0.1011
0.37,0.98,0.06,2.82,-3.35,-1.72,-14.65,-27.83,-18.16,1.21,-0.36,-1.93,0.1012
0.34,0.99,0.01,1.77,2.8,-0.69,-14.94,-27.25,-18.46,1.24,-0.33,-1.96,0.1014
0.35,0.99,0.04,0.15,3.57,-0.37,-14.94,-26.95,-19.04,1.23,-0.34,-1.97,0.1015
0.34,0.99,0.05,1.41,10.6,0.94,-14.65,-27.83,-17.58,1.23,-0.33,-1.93,0.1016
0.35,0.99,0.06,1.08,5.07,0.42,-14.65,-27.54,-18.46,1.22,-0.34,-1.95,0.1018
0.34,0.99,0.08,2.26,6.77,1.09,-14.94,-27.25,-18.16,1.23,-0.33,-1.96,0.1019
0.34,0.98,0.08,3.3,5.8,1.91,-15.23,-27.54,-17.58,1.22,-0.34,-1.94,0.102
0.33,0.99,0.05,2.72,8.24,2.85,-14.94,-27.83,-17.87,1.24,-0.33,-1.94,0.1021
0.35,0.98,0.05,1.17,5.59,2.55,-15.53,-27.25,-17.58,1.22,-0.34,-1.94,0.1022
0.35,0.98,0.08,0.98,4.15,1.91,-14.65,-27.83,-17.29,1.22,-0.35,-1.91,0.1024
0.35,0.97,0.07,-0.11,-0.27,0.71,-14.36,-27.25,-18.16,1.22,-0.35,-1.94,0.1026
0.34,0.98,0.06,-2.0,-1.86,1.66,-14.65,-28.71,-17.58,1.23,-0.34,-1.91,0.1028
0.32,0.98,-0.01,-3.61,7.09,5.71,-14.36,-27.54,-16.7,1.25,-0.32,-1.92,0.1029
0.33,0.98,-0.04,-9.6,24.21,11.57,-13.77,-27.83,-16.7,1.24,-0.33,-1.9,0.103
0.34,1.03,-0.04,-16.26,33.87,23.51,-14.65,-27.54,-16.11,1.25,-0.32,-1.91,0.1031
0.3,1.08,0.06,8.66,65.09,46.37,-13.48,-27.25,-14.06,1.3,-0.27,-1.88,0.1033
0.36,1.0,0.27,27.63,120.93,117.9,-12.01,-26.37,-14.06,1.15,-0.33,-1.87,0.1034
0.41,0.72,0.58,64.25,215.16,152.87,-12.6,-24.32,-12.3,0.79,-0.42,-1.92,0.1035
0.47,0.65,0.54,71.79,211.01,115.32,-13.48,-22.27,-12.3,0.74,-0.51,-1.94,0.1037
0.63,0.71,0.47,32.4,103.49,-0.68,-12.89,-21.09,-12.6,0.73,-0.64,-1.89,0.1038
0.58,0.89,0.34,-1.49,-109.83,-63.1,-13.18,-21.09,-12.89,0.92,-0.55,-1.88,0.1039
0.25,0.89,0.22,54.17,129.93,-1.41,-13.18,-20.8,-12.89,1.22,-0.26,-2.02,0.1041
0.59,1.12,0.12,36.99,38.0,-6.07,-14.65,-19.92,-14.06,1.07,-0.49,-1.95,0.1042
0.29,0.88,0.15,42.94,43.13,-10.02,-14.65,-19.63,-14.94,1.21,-0.32,-2.07,0.1043
0.25,1.0,-0.04,22.5,27.53,-4.48,-15.23,-19.04,-14.94,1.32,-0.25,-2.11,0.1045
0.21,1.0,-0.0,3.97,-3.77,-3.62,-14.65,-18.75,-14.65,1.36,-0.21,-2.13,0.1046
0.25,1.0,0.03,-7.36,-24.46,-3.4,-14.36,-19.63,-14.94,1.32,-0.25,-2.09,0.1047
0.34,0.97,0.14,-13.57,-49.29,-6.65,-14.94,-19.63,-13.48,1.21,-0.33,-2.03,0.1049
0.36,0.95,0.07,-17.85,-64.45,-7.93,-14.36,-20.8,-13.77,1.2,-0.36,-1.97,0.105
0.31,0.97,0.06,-18.41,-61.44,-2.95,-13.77,-21.68,-13.18,1.26,-0.31,-1.96,0.1051
0.31,0.99,-0.05,-18.93,-39.27,7.87,-13.48,-21.97,-13.18,1.26,-0.3,-1.95,0.1053
0.33,1.02,-0.14,-13.5,-27.57,12.55,-13.77,-21.97,-12.01,1.23,-0.31,-1.92,0.1054
0.99,1.47,-0.52,-72.27,-121.77,-2.81,-13.48,-23.73,-10.84,0.92,-0.57,-1.77,0.1055
0.74,1.0,0.57,6.55,-225.85,-132.47,-13.77,-24.61,-11.43,0.82,-0.57,-1.81,0.1057
0.24,0.94,0.55,171.52,-102.23,-146.43,-16.99,-24.9,-12.3,1.01,-0.21,-2.07,0.1058
0.16,0.98,0.25,249.99,6.48,-231.55,-20.21,-22.56,-15.53,1.27,-0.15,-2.18,0.1059
0.9,0.91,-0.3,179.18,178.46,-33.78,-21.68,-21.97,-18.16,0.76,-0.75,-2.04,0.1061
0.26,1.14,-0.7,179.28,218.67,31.08,-22.56,-21.68,-19.92,0.99,-0.19,-2.36,0.1062
0.14,0.83,-0.28,42.27,-85.51,41.63,-22.56,-21.97,-22.27,1.21,-0.16,-2.36,0.1063
0.28,0.69,-0.5,30.21,6.8,30.84,-22.85,-22.56,-21.68,0.87,-0.32,-2.3,0.1065
0.25,0.67,-0.37,-27.7,-14.28,1.21,-23.44,-22.85,-21.68,0.98,-0.32,-2.27,0.1066
0.19,0.65,-0.3,-53.14,-40.58,-19.95,-23.14,-21.97,-20.21,1.08,-0.25,-2.3,0.1067
0.09,0.76,-0.26,-57.59,-19.31,-25.67,-23.14,-22.56,-19.04,1.23,-0.11,-2.33,0.1069
0.12,1.05,-0.36,-69.53,-48.07,-26.25,-22.56,-22.27,-18.46,1.22,-0.11,-2.32,0.107
0.14,1.15,-0.43,-87.07,-29.82,-13.31,-21.39,-23.14,-16.7,1.19,-0.11,-2.27,0.1071
0.29,1.09,-0.18,-94.52,1.38,-18.97,-20.8,-24.02,-14.94,1.26,-0.26,-2.05,0.1073
0.61,2.0,-0.25,14.22,23.92,11.59,-20.21,-24.32,-15.82,1.25,-0.3,-2.04,0.1074
0.35,0.91,-0.35,-6.54,13.08,-10.6,-20.51,-24.32,-15.23,1.07,-0.34,-2.07,0.1075
0.05,1.15,-0.14,-24.46,-71.71,-12.24,-19.63,-24.9,-15.53,1.44,-0.04,-2.16,0.1077
0.03,1.11,-0.28,-14.85,-48.25,4.01,-19.34,-25.2,-14.65,1.32,-0.03,-2.19,0.1078
0.22,1.02,-0.11,-10.89,-50.97,8.02,-19.34,-26.07,-15.53,1.33,-0.21,-2.02,0.1079
0.12,1.09,-0.12,-13.47,-66.91,11.09,-18.75,-26.37,-15.53,1.42,-0.11,-2.07,0.1081
0.15,1.07,-0.13,-22.23,-109.83,11.07,-19.34,-27.54,-16.7,1.39,-0.13,-2.07,0.1082
0.28,1.07,-0.24,-22.19,-141.28,14.08,-18.46,-28.71,-16.99,1.24,-0.25,-2.01,0.1083
0.17,1.04,-0.19,-1.1,-36.41,27.72,-18.16,-29.0,-17.87,1.33,-0.16,-2.07,0.1084
0.43,1.01,-0.14,1.4,-26.96,26.72,-18.46,-30.18,-17.87,1.15,-0.4,-1.9,0.1086
0.44,0.99,-0.17,2.53,27.79,29.47,-17.58,-30.47,-17.58,1.13,-0.41,-1.88,0.1087
0.61,0.95,-0.14,-51.54,-127.56,8.78,-17.87,-30.18,-16.41,0.99,-0.57,-1.8,0.1088
0.51,0.93,-0.05,-38.67,-9.23,23.41,-16.7,-31.05,-16.7,1.06,-0.5,-1.79,0.109
0.47,0.91,0.12,-41.34,49.61,28.74,-16.41,-31.64,-16.11,1.08,-0.47,-1.78,0.1091
0.54,0.9,0.12,-55.67,-6.44,-4.57,-14.94,-30.76,-16.41,1.02,-0.54,-1.75,0.1092
0.52,0.97,0.08,-67.15,-167.0,-45.17,-15.23,-32.23,-18.75,1.08,-0.49,-1.79,0.1094
0.77,0.57,0.24,0.43,50.8,0.08,-15.53,-31.64,-18.75,0.62,-0.89,-1.72,0.1095
0.67,0.93,-0.02,21.96,39.47,-1.43,-15.82,-32.23,-18.46,0.95,-0.62,-1.74,0.1096
0.34,0.54,0.1,1.99,-66.48,-18.25,-15.23,-31.64,-19.04,0.99,-0.56,-1.78,0.1098
0.52,0.93,0.06,-1.56,-24.61,3.13,-15.82,-31.93,-18.75,1.06,-0.51,-1.8,0.1099
0.49,0.95,0.02,3.6,-8.19,2.97,-15.82,-33.4,-18.16,1.09,-0.48,-1.78,0.11
0.55,0.92,0.01,3.68,-7.1,0.46,-15.53,-32.81,-19.04,1.04,-0.53,-1.77,0.1101
0.52,0.93,0.03,5.63,2.09,2.33,-15.23,-32.23,-18.75,1.06,-0.51,-1.78,0.1103
0.56,0.94,0.03,8.14,5.92,1.06,-15.23,-31.93,-18.75,1.03,-0.54,-1.77,0.1104
0.6,0.92,0.02,3.24,-19.31,-6.6,-15.53,-31.93,-19.04,0.99,-0.58,-1.76,0.1105
0.52,0.91,-0.0,1.82,-30.83,-8.88,-15.82,-31.64,-19.63,1.06,-0.51,-1.81,0.1106
0.47,0.94,-0.05,1.73,-22.54,-6.66,-16.11,-32.52,-19.92,1.1,-0.46,-1.83,0.1108
0.53,0.95,-0.07,-2.87,-28.59,-11.42,-16.11,-32.52,-19.34,1.06,-0.5,-1.8,0.1109
0.51,0.94,-0.01,-4.23,-32.68,-15.28,-16.7,-31.35,-20.51,1.07,-0.5,-1.85,0.111
0.54,0.94,-0.01,-2.14,-39.96,-17.14,-16.41,-31.64,-21.09,1.05,-0.52,-1.84,0.1112
0.51,0.93,0.01,-0.63,-43.14,-19.3,-16.7,-31.35,-21.68,1.07,-0.5,-1.86,0.1113
0.49,0.96,-0.05,-1.99,-52.99,-20.14,-16.11,-31.64,-22.56,1.09,-0.48,-1.88,0.1114
0.45,1.01,-0.18,2.0,-29.54,-12.86,-17.29,-31.35,-23.14,1.13,-0.41,-1.95,0.1116
0.4,0.96,-0.22,-7.73,-20.11,-14.64,-17.29,-30.76,-22.85,1.12,-0.39,-1.98,0.1117
0.54,1.01,-0.16,-12.92,-55.88,-31.57,-18.16,-30.18,-24.02,1.06,-0.48,-1.95,0.1118
0.56,1.01,-0.14,-23.03,-86.36,-29.24,-18.16,-30.18,-24.61,1.05,-0.51,-1.94,0.112
0.56,1.06,-0.19,20.23,67.96,25.45,-17.87,-29.88,-24.32,1.06,-0.48,-1.96,0.1121
0.66,0.9,0.11,32.28,33.51,60.52,-16.7,-31.64,-24.02,0.93,-0.63,-1.83,0.1122
0.36,0.87,0.01,39.91,107.06,61.73,-15.53,-31.35,-23.14,1.18,-0.39,-1.94,0.1124
0.7,0.73,-0.19,-37.09,-8.07,8.58,-15.82,-31.05,-22.85,0.79,-0.75,-1.78,0.1125
0.41,1.01,0.04,-72.32,-232.95,-71.56,-16.41,-31.05,-25.2,1.18,-0.39,-1.99,0.1126
0.2,0.94,-0.2,-37.66,-6.68,-54.64,-17.29,-29.0,-25.49,1.27,-0.21,-2.17,0.1128
0.58,1.12,-0.17,-14.53,-22.71,-42.21,-17.58,-27.83,-25.2,1.08,-0.47,-2.01,0.1129
0.44,1.13,-0.03,-15.98,14.72,-33.94,-17.58,-28.12,-24.61,1.2,-0.37,-2.05,0.113
0.63,0.88,-0.12,-6.77,36.74,-23.98,-17.87,-28.71,-25.2,0.94,-0.62,-1.92,0.1132
0.31,0.98,0.28,-6.3,-21.79,-41.04,-18.16,-26.66,-25.2,1.17,-0.29,-2.17,0.1133
0.0,1.08,0.07,-6.79,-44.49,-28.43,-18.46,-26.66,-25.2,1.51,-0.0,-2.35,0.1134
0.24,1.02,-0.1,-11.46,-49.9,-17.79,-18.46,-26.07,-26.37,1.32,-0.23,-2.22,0.1136
0.27,1.01,-0.0,-17.88,-48.56,-18.73,-19.92,-26.07,-26.07,1.3,-0.27,-2.19,0.1137
0.22,0.99,0.15,-14.53,-48.35,-19.58,-19.34,-25.2,-26.95,1.31,-0.22,-2.26,0.1138
0.24,1.01,0.04,-2.06,-14.14,-10.7,-19.63,-24.9,-26.07,1.34,-0.23,-2.24,0.114
0.22,0.99,0.07,6.23,-4.59,-10.28,-19.34,-24.61,-26.37,1.34,-0.22,-2.25,0.1141
0.2,0.99,0.02,1.3,-13.43,-3.68,-19.04,-25.2,-26.37,1.37,-0.2,-2.25,0.1142
0.19,1.02,-0.1,8.28,31.92,6.39,-19.34,-25.2,-25.78,1.36,-0.19,-2.26,0.1144
0.16,1.04,0.04,-4.75,15.64,8.38,-19.34,-25.49,-26.07,1.41,-0.15,-2.27,0.1145
0.29,0.95,0.08,-2.58,28.52,10.99,-19.92,-25.49,-26.66,1.26,-0.3,-2.2,0.1146
0.32,0.96,0.13,-9.27,-11.22,6.06,-19.63,-25.78,-25.2,1.23,-0.32,-2.16,0.1148
0.33,0.97,0.14,-2.01,7.9,9.71,-18.75,-26.07,-25.2,1.22,-0.32,-2.14,0.1149
0.33,0.96,0.14,-8.95,-19.39,1.99,-19.04,-24.9,-25.78,1.21,-0.33,-2.18,0.115
0.22,0.98,0.06,-0.9,24.86,7.33,-19.63,-26.37,-25.49,1.34,-0.22,-2.21,0.1151
0.2,1.01,0.09,-0.99,23.89,9.64,-19.34,-25.49,-24.9,1.36,-0.2,-2.23,0.1153
0.17,1.0,0.21,-2.55,9.3,13.64,-19.04,-26.95,-24.61,1.3,-0.17,-2.24,0.1154
0.14,0.99,-0.02,-7.15,35.31,33.03,-18.46,-26.66,-24.32,1.43,-0.14,-2.22,0.1155
0.23,0.98,-0.06,-20.26,30.3,45.71,-18.75,-28.12,-23.73,1.33,-0.23,-2.13,0.1156
0.26,1.08,-0.07,-30.89,52.2,71.93,-17.29,-28.42,-22.85,1.33,-0.23,-2.1,0.1158
-0.02,1.49,-0.43,-38.78,86.73,87.0,-15.53,-31.05,-21.97,1.29,0.01,-2.27,0.1159
0.31,1.09,0.54,8.87,109.05,52.36,-14.06,-31.35,-19.63,1.05,-0.25,-2.01,0.116
0.28,1.09,0.47,150.23,108.8,-2.8,-15.53,-30.76,-17.87,1.11,-0.23,-2.02,0.1162
0.97,0.93,0.6,249.99,-24.96,-81.64,-17.58,-31.05,-20.51,0.68,-0.72,-1.85,0.1163
0.51,0.94,0.52,249.99,-139.37,-40.89,-18.46,-29.3,-26.07,0.91,-0.45,-2.06,0.1164
0.59,1.04,-0.23,215.06,-82.69,-2.39,-18.46,-27.83,-30.47,1.02,-0.51,-2.06,0.1166
-0.12,0.95,-0.81,32.26,-15.32,-7.13,-18.75,-25.49,-32.23,0.86,0.09,-2.61,0.1167
-0.16,0.72,-0.01,9.2,249.99,56.05,-18.46,-27.83,-29.59,1.36,0.21,-2.64,0.1168
0.42,0.6,-0.38,-155.4,21.76,-11.53,-19.04,-29.59,-27.54,0.81,-0.54,-2.03,0.117
0.2,0.71,-0.24,-201.61,-49.9,0.18,-19.34,-28.71,-24.9,1.15,-0.27,-2.16,0.1171
0.2,0.93,-0.25,-187.81,98.93,94.89,-17.87,-30.18,-21.68,1.24,-0.2,-2.11,0.1172
0.83,0.78,0.11,-111.72,97.21,127.26,-14.36,-31.05,-18.16,0.75,-0.81,-1.68,0.1174
0.86,0.93,0.28,4.34,70.99,133.22,-12.89,-31.64,-17.87,0.8,-0.73,-1.67,0.1175
0.94,1.05,0.22,59.72,83.85,74.31,-11.13,-30.76,-18.16,0.83,-0.72,-1.65,0.1176
0.82,1.14,-0.47,18.63,24.94,-88.71,-11.43,-29.3,-18.16,0.88,-0.59,-1.75,0.1178
0.11,1.39,-0.27,42.75,19.74,-35.79,-12.3,-29.88,-19.34,1.36,-0.08,-2.12,0.1179
0.19,0.69,0.55,5.58,-9.54,-66.6,-13.48,-29.0,-19.63,0.87,-0.22,-2.09,0.118
0.26,1.1,0.08,34.46,129.17,-34.49,-14.06,-28.12,-19.34,1.33,-0.23,-2.02,0.1182
0.27,0.98,-0.06,8.03,41.31,-10.03,-13.48,-27.54,-18.75,1.3,-0.26,-1.99,0.1183
0.31,1.02,-0.13,-1.85,7.82,-10.22,-13.77,-27.54,-18.75,1.25,-0.29,-1.98,0.1184
0.2,1.0,0.08,8.88,57.19,8.09,-13.48,-27.25,-18.46,1.36,-0.2,-2.04,0.1186
0.26,1.0,0.07,4.33,79.31,12.28,-12.89,-26.66,-17.29,1.31,-0.25,-1.98,0.1187
0.29,0.97,0.22,15.0,77.58,23.67,-13.48,-26.07,-16.41,1.21,-0.29,-1.97,0.1188
0.2,1.02,0.07,17.34,52.35,21.45,-13.48,-26.66,-16.7,1.36,-0.19,-2.01,0.119
0.39,0.95,0.15,19.23,26.53,14.63,-13.48,-25.78,-16.11,1.16,-0.38,-1.9,0.1191
0.37,0.98,0.06,18.1,-16.01,4.54,-13.18,-25.49,-15.82,1.2,-0.36,-1.9,0.1192
0.36,1.01,-0.0,15.09,-14.24,9.1,-13.18,-26.07,-16.99,1.23,-0.34,-1.93,0.1194
0.28,1.02,0.12,28.1,30.88,30.08,-13.77,-26.37,-15.82,1.28,-0.27,-1.95,0.1195
0.28,0.87,0.07,25.34,101.89,78.53,-13.48,-26.07,-16.11,1.24,-0.32,-1.93,0.1196
0.18,0.85,0.16,3.33,221.2,92.67,-13.48,-24.9,-15.53,1.29,-0.21,-2.02,0.1197
0.5,0.78,0.36,-25.67,126.14,33.07,-12.01,-23.14,-14.94,0.9,-0.53,-1.87,0.1199
0.58,0.87,0.35,-8.39,89.63,-8.9,-12.3,-22.85,-15.23,0.91,-0.55,-1.87,0.12
1.0,1.02,-0.12,-13.42,-145.5,-49.96,-12.01,-24.32,-16.41,0.79,-0.77,-1.73,0.1201
0.15,1.04,-0.03,12.79,26.1,-13.52,-12.3,-23.73,-16.41,1.43,-0.14,-2.08,0.1203
0.34,0.94,0.12,5.06,3.78,4.95,-12.89,-23.73,-16.41,1.2,-0.35,-1.96,0.1204
0.42,0.91,0.25,13.85,14.27,-2.4,-12.6,-24.02,-15.82,1.08,-0.42,-1.91,0.1205
0.41,0.95,0.21,21.37,20.89,0.06,-13.18,-23.14,-16.7,1.12,-0.4,-1.96,0.1207
0.27,0.99,0.19,25.75,37.59,6.74,-13.18,-23.73,-16.7,1.25,-0.26,-2.03,0.1208
0.36,0.96,0.07,17.52,18.98,2.24,-13.48,-23.73,-15.53,1.2,-0.36,-1.94,0.1209
0.39,0.95,0.09,11.09,6.86,0.0,-13.18,-22.85,-16.99,1.17,-0.38,-1.97,0.121
0.33,0.99,0.02,-2.46,-24.57,-1.63,-13.77,-23.44,-16.7,1.25,-0.32,-1.99,0.1212
0.37,0.96,0.11,-15.32,-42.07,-1.89,-13.48,-23.73,-17.58,1.19,-0.36,-1.98,0.1213
0.24,1.03,0.05,-10.35,-17.2,11.2,-12.89,-24.02,-16.41,1.33,-0.23,-2.02,0.1214
0.41,0.91,0.18,-11.04,-20.09,11.23,-12.89,-24.02,-16.7,1.12,-0.41,-1.93,0.1215
0.54,0.89,0.28,-9.05,-74.08,-4.15,-12.6,-24.61,-16.7,0.97,-0.52,-1.86,0.1217
0.44,0.9,0.21,1.99,-53.28,-1.8,-12.89,-25.2,-17.87,1.08,-0.44,-1.91,0.1218
0.51,0.91,0.09,0.98,-59.67,-7.51,-12.6,-25.49,-18.75,1.05,-0.52,-1.87,0.1219
0.5,0.93,0.07,3.17,-29.87,-5.94,-13.48,-25.49,-17.87,1.07,-0.49,-1.87,0.1221
0.52,0.95,0.07,3.62,-36.93,-11.47,-14.06,-26.07,-17.58,1.07,-0.5,-1.86,0.1222
0.48,0.93,0.09,0.27,-51.58,-19.84,-13.77,-26.37,-18.16,1.08,-0.48,-1.87,0.1223
0.44,0.91,0.08,0.43,-44.17,-20.25,-13.48,-26.37,-19.34,1.11,-0.45,-1.91,0.1224
0.54,0.94,-0.03,5.94,-11.51,-3.68,-14.06,-26.07,-19.04,1.05,-0.52,-1.88,0.1226
0.43,0.98,-0.03,6.4,8.3,-2.24,-13.77,-26.66,-19.63,1.16,-0.41,-1.93,0.1227
0.49,0.96,-0.02,5.03,0.18,-3.76,-14.65,-26.07,-19.63,1.1,-0.47,-1.92,0.1228
0.49,0.94,0.05,6.7,0.24,-3.82,-14.36,-26.07,-19.34,1.09,-0.48,-1.91,0.1229
0.5,0.98,-0.0,8.05,-1.41,-7.55,-14.65,-26.07,-19.92,1.1,-0.47,-1.93,0.1231
0.44,0.98,0.0,7.71,22.16,-6.48,-14.06,-25.2,-19.63,1.15,-0.42,-1.96,0.1232
0.4,0.97,-0.06,8.58,45.54,0.63,-14.06,-24.9,-18.75,1.18,-0.39,-1.97,0.1233
0.45,0.97,0.06,3.66,26.94,-1.77,-14.65,-25.2,-18.75,1.13,-0.43,-1.94,0.1234
0.41,0.98,-0.01,2.94,25.97,-0.63,-14.65,-26.07,-19.04,1.17,-0.4,-1.95,0.1236
0.41,0.98,0.02,0.13,17.88,-1.08,-14.36,-24.61,-19.04,1.17,-0.4,-1.98,0.1237
0.41,0.98,0.04,-0.53,22.02,-1.05,-14.65,-24.61,-18.16,1.17,-0.4,-1.96,0.1238
0.4,0.97,0.07,-0.31,19.01,-1.09,-14.06,-24.61,-18.46,1.18,-0.39,-1.97,0.1239
0.39,0.97,0.08,-0.67,6.47,-2.88,-14.36,-24.32,-18.16,1.18,-0.38,-1.98,0.1241
0.38,0.97,0.1,-0.84,-0.75,-2.98,-14.36,-25.2,-18.16,1.18,-0.37,-1.97,0.1242
0.36,0.98,0.06,-1.47,-0.76,-1.22,-14.36,-24.61,-18.16,1.22,-0.35,-1.99,0.1243
0.37,0.97,0.08,-1.82,1.09,0.19,-14.65,-25.2,-18.16,1.2,-0.36,-1.98,0.1245
0.38,0.97,0.1,-0.48,7.03,1.45,-13.77,-24.32,-18.46,1.19,-0.37,-1.99,0.1246
0.39,0.96,0.11,-0.06,4.63,1.04,-14.36,-24.61,-18.16,1.17,-0.38,-1.97,0.1247
0.38,0.96,0.1,1.47,1.83,0.34,-14.65,-24.32,-18.16,1.18,-0.38,-1.99,0.1248
0.39,0.97,0.12,2.18,3.23,-0.16,-13.48,-24.61,-17.87,1.17,-0.38,-1.96,0.1249
0.38,0.96,0.1,3.11,3.12,-0.03,-13.77,-24.61,-17.87,1.18,-0.37,-1.97,0.1251
0.38,0.95,0.13,3.94,4.9,0.3,-13.77,-24.9,-17.87,1.17,-0.38,-1.96,0.1252
0.38,0.96,0.11,4.07,6.68,0.7,-13.48,-24.9,-17.58,1.18,-0.37,-1.95,0.1253
0.39,0.95,0.13,3.82,3.34,-0.12,-13.48,-24.61,-16.99,1.16,-0.38,-1.94,0.1254
0.37,0.96,0.09,4.84,9.99,1.03,-14.36,-24.61,-17.58,1.19,-0.37,-1.97,0.1255
0.36,0.96,0.11,5.37,6.62,0.81,-13.48,-24.9,-17.87,1.2,-0.36,-1.97,0.1257
0.37,0.96,0.14,5.94,3.78,0.05,-14.36,-24.61,-17.58,1.18,-0.36,-1.98,0.1258
0.37,0.96,0.13,6.39,-0.27,-0.43,-13.77,-24.61,-16.99,1.18,-0.37,-1.95,0.1259
0.35,0.97,0.09,6.99,4.17,0.2,-13.18,-24.02,-16.99,1.21,-0.35,-1.97,0.126
0.38,0.97,0.12,6.94,-1.69,-0.66,-13.77,-24.32,-17.58,1.18,-0.37,-1.97,0.1262
0.38,0.96,0.13,6.8,-8.81,-2.03,-13.77,-24.61,-17.58,1.18,-0.37,-1.96,0.1263
0.36,0.98,0.09,5.84,-8.9,-1.88,-14.06,-24.32,-17.87,1.21,-0.35,-1.99,0.1264
0.36,0.99,0.0,3.99,-0.17,0.0,-14.06,-24.61,-17.29,1.22,-0.35,-1.97,0.1265
0.37,0.98,0.05,0.62,-0.59,0.43,-14.06,-24.32,-17.58,1.21,-0.36,-1.98,0.1267
0.36,0.97,0.09,1.34,4.77,1.82,-14.06,-24.32,-17.87,1.21,-0.35,-1.99,0.1268
0.38,0.96,0.11,0.79,-2.21,0.95,-14.06,-23.73,-17.87,1.18,-0.37,-1.99,0.1269
0.37,0.98,0.04,-1.14,-3.37,0.24,-14.06,-24.32,-17.87,1.21,-0.36,-1.98,0.127
0.4,0.96,0.12,-2.2,-8.84,-0.83,-14.36,-24.9,-18.16,1.16,-0.39,-1.96,0.1272
0.4,0.96,0.13,-0.16,-13.24,-2.4,-13.77,-24.32,-17.58,1.16,-0.39,-1.96,0.1273
0.36,0.97,0.09,0.9,-8.72,-1.5,-14.06,-24.61,-16.7,1.2,-0.36,-1.95,0.1274
0.38,0.97,0.07,0.54,-3.11,0.43,-13.48,-24.9,-17.58,1.19,-0.37,-1.95,0.1275
0.38,0.97,0.07,0.21,3.74,1.61,-13.77,-24.02,-17.87,1.19,-0.37,-1.98,0.1277
0.38,0.96,0.09,-0.18,7.26,2.96,-14.06,-24.61,-17.58,1.19,-0.37,-1.96,0.1278
0.4,0.95,0.12,-0.1,-1.33,0.95,-14.06,-24.32,-17.58,1.16,-0.4,-1.96,0.1279
0.39,0.95,0.11,1.04,-1.63,0.36,-14.06,-24.61,-17.58,1.17,-0.39,-1.95,0.128
0.4,0.95,0.12,1.75,-2.82,-0.75,-12.89,-24.9,-17.87,1.16,-0.4,-1.94,0.1281
0.4,0.96,0.11,2.35,-3.63,-0.9,-13.77,-25.2,-17.87,1.16,-0.39,-1.94,0.1283
0.4,0.95,0.12,2.49,-8.11,-2.32,-13.77,-24.61,-17.58,1.16,-0.39,-1.95,0.1284
0.38,0.96,0.09,2.5,-2.1,-0.58,-13.77,-25.2,-17.87,1.19,-0.37,-1.95,0.1285
0.39,0.96,0.1,2.15,7.1,1.6,-13.48,-24.61,-17.87,1.18,-0.38,-1.96,0.1286
0.4,0.95,0.12,2.46,6.38,1.75,-13.77,-24.9,-17.58,1.16,-0.39,-1.94,0.1288
0.4,0.95,0.12,2.53,-1.79,-0.24,-13.77,-24.9,-17.87,1.16,-0.39,-1.95,0.1289
0.4,0.96,0.11,2.69,-4.53,-1.31,-13.77,-24.9,-16.99,1.16,-0.4,-1.93,0.129
0.4,0.95,0.1,2.4,-4.14,-1.75,-14.06,-24.32,-16.99,1.16,-0.4,-1.95,0.1291
0.39,0.95,0.11,2.65,1.18,-0.67,-13.48,-24.32,-17.29,1.17,-0.39,-1.95,0.1293
0.39,0.95,0.11,2.98,-0.84,-0.39,-13.18,-25.2,-17.58,1.16,-0.39,-1.93,0.1294
0.4,0.96,0.11,2.98,-0.84,-0.2,-13.48,-24.61,-18.16,1.16,-0.39,-1.96,0.1295
0.4,0.95,0.11,3.23,-0.19,-0.31,-13.77,-24.61,-17.58,1.16,-0.39,-1.95,0.1296
0.4,0.96,0.11,3.25,0.18,-0.41,-14.65,-24.61,-17.58,1.16,-0.39,-1.96,0.1298
0.4,0.96,0.1,3.52,0.87,-0.04,-14.06,-25.2,-17.58,1.16,-0.39,-1.94,0.1299
0.39,0.95,0.11,3.12,0.27,0.01,-13.77,-24.9,-17.58,1.17,-0.39,-1.95,0.13
0.4,0.96,0.11,2.95,0.36,-0.06,-13.77,-24.61,-17.58,1.17,-0.39,-1.95,0.1301
0.4,0.96,0.11,3.06,0.56,-0.19,-13.77,-24.61,-18.16,1.17,-0.39,-1.96,0.1302
0.39,0.95,0.11,3.25,0.36,-0.43,-13.48,-24.61,-17.58,1.17,-0.39,-1.95,0.1304
0.39,0.96,0.1,2.98,1.34,-0.02,-14.06,-25.49,-17.58,1.17,-0.38,-1.94,0.1305
0.39,0.95,0.12,2.72,1.11,-0.45,-13.18,-24.9,-17.87,1.16,-0.39,-1.95,0.1306
0.39,0.96,0.11,3.14,-1.01,-0.89,-14.06,-24.02,-16.99,1.17,-0.39,-1.96,0.1307
0.4,0.95,0.12,2.94,-4.9,-1.63,-14.06,-24.61,-17.87,1.16,-0.39,-1.96,0.1309
0.39,0.96,0.09,3.01,-3.4,-1.31,-13.77,-24.61,-17.58,1.17,-0.38,-1.95,0.131
0.39,0.96,0.11,2.88,-2.06,-0.95,-13.77,-24.9,-17.87,1.17,-0.38,-1.96,0.1311
0.39,0.96,0.11,2.98,0.45,-0.12,-13.77,-25.2,-17.87,1.17,-0.38,-1.95,0.1312
0.39,0.96,0.11,3.11,-1.28,-0.19,-13.77,-24.9,-17.58,1.17,-0.39,-1.95,0.1314
0.39,0.96,0.09,2.82,0.68,0.17,-14.36,-24.9,-17.58,1.18,-0.38,-1.95,0.1315
0.39,0.96,0.11,2.11,1.48,0.21,-14.06,-25.2,-18.46,1.17,-0.38,-1.96,0.1316
0.4,0.95,0.14,2.56,1.57,0.39,-14.06,-24.9,-16.7,1.15,-0.39,-1.93,0.1317
0.4,0.96,0.08,1.5,2.24,-0.28,-14.06,-24.32,-17.58,1.17,-0.39,-1.96,0.1318
0.4,0.96,0.12,1.52,-1.24,-1.93,-14.06,-24.61,-18.16,1.16,-0.39,-1.97,0.132
0.39,0.95,0.16,4.39,2.02,-1.0,-13.77,-24.02,-17.29,1.15,-0.38,-1.97,0.1321
0.38,0.97,0.08,3.16,0.99,-0.76,-13.77,-24.02,-17.87,1.19,-0.38,-1.98,0.1322
0.39,0.96,0.09,0.23,-4.93,-2.19,-12.6,-24.9,-16.99,1.17,-0.39,-1.92,0.1323
0.39,0.95,0.13,1.47,-8.97,-3.18,-13.77,-24.02,-17.87,1.16,-0.39,-1.97,0.1325
0.38,0.95,0.13,2.71,-9.7,-2.56,-13.18,-24.9,-17.87,1.17,-0.37,-1.96,0.1326
0.39,0.96,0.08,0.96,-8.19,-2.22,-13.77,-24.32,-17.58,1.18,-0.38,-1.96,0.1327
0.39,0.96,0.1,1.42,-5.64,-1.44,-13.77,-24.61,-17.29,1.18,-0.38,-1.95,0.1328
0.39,0.95,0.14,2.9,-2.57,-0.52,-14.06,-24.32,-17.58,1.16,-0.39,-1.97,0.133
0.38,0.96,0.08,2.72,0.11,0.02,-13.77,-25.49,-17.87,1.18,-0.38,-1.94,0.1331
0.4,0.96,0.1,2.11,0.43,0.37,-13.48,-24.9,-17.87,1.17,-0.39,-1.95,0.1332
0.39,0.95,0.12,4.1,4.69,1.46,-14.06,-25.49,-17.58,1.17,-0.38,-1.94,0.1333
0.39,0.96,0.09,3.42,2.97,0.47,-13.48,-24.32,-17.29,1.17,-0.39,-1.95,0.1334
0.39,0.96,0.11,2.79,1.58,0.33,-14.36,-24.61,-17.58,1.17,-0.38,-1.96,0.1336
0.4,0.96,0.11,3.26,-0.21,0.44,-13.18,-24.9,-18.16,1.16,-0.39,-1.95,0.1337
0.39,0.95,0.1,3.39,-0.56,0.11,-14.36,-24.61,-17.29,1.17,-0.39,-1.95,0.1338
0.4,0.95,0.11,1.96,-4.35,-0.7,-14.06,-24.9,-17.58,1.16,-0.39,-1.95,0.1339
0.39,0.96,0.11,1.82,-6.15,-1.01,-14.06,-24.9,-17.58,1.17,-0.39,-1.95,0.1341
0.39,0.96,0.1,1.63,-8.31,-1.2,-13.48,-24.61,-17.87,1.17,-0.39,-1.96,0.1342
0.39,0.96,0.11,2.01,-3.68,0.18,-14.06,-24.9,-17.29,1.17,-0.39,-1.94,0.1343
0.4,0.95,0.1,3.78,5.49,1.67,-13.77,-25.2,-17.87,1.16,-0.4,-1.94,0.1344
0.42,0.95,0.1,5.83,9.77,2.6,-13.77,-24.32,-17.87,1.15,-0.41,-1.95,0.1345
0.39,0.96,0.1,6.72,7.11,1.27,-14.36,-24.9,-17.58,1.17,-0.38,-1.95,0.1347
0.41,0.95,0.11,5.36,-16.83,-1.94,-14.06,-24.9,-17.29,1.15,-0.41,-1.93,0.1348
0.39,0.96,0.11,7.14,-17.28,0.12,-13.48,-25.2,-18.46,1.17,-0.38,-1.96,0.135
0.45,0.92,0.14,7.24,-34.66,0.4,-13.18,-25.78,-18.16,1.1,-0.45,-1.9,0.1351
0.32,1.01,0.06,7.09,-32.68,4.01,-14.06,-25.2,-17.87,1.26,-0.31,-1.99,0.1352
0.35,0.98,0.11,6.32,-53.18,5.91,-13.77,-25.78,-19.04,1.21,-0.34,-1.99,0.1353
0.4,0.98,-0.0,5.22,-88.27,9.38,-13.77,-26.37,-19.92,1.18,-0.39,-1.96,0.1355
0.43,0.96,-0.02,14.66,-55.45,20.67,-14.06,-26.95,-20.51,1.15,-0.42,-1.94,0.1356
0.55,0.98,-0.04,25.74,-36.34,20.55,-13.77,-26.66,-19.63,1.06,-0.51,-1.88,0.1357
0.49,0.92,-0.01,-3.5,-182.17,-56.02,-14.65,-27.25,-22.27,1.08,-0.49,-1.93,0.1359
1.32,0.86,-0.12,-63.78,-250.0,-33.66,-15.82,-26.37,-24.02,0.57,-0.99,-1.81,0.136
-0.13,1.09,-0.1,-35.76,49.0,11.0,-15.23,-26.95,-23.44,1.42,0.12,-2.44,0.1361
0.33,0.9,-0.04,-22.0,80.15,53.82,-15.82,-26.66,-22.85,1.22,-0.35,-2.05,0.1362
0.52,0.82,0.03,-11.67,92.36,17.58,-15.53,-27.54,-21.97,1.01,-0.56,-1.89,0.1364
0.68,0.9,-0.12,-45.53,-51.45,-51.73,-16.7,-26.66,-22.27,0.91,-0.65,-1.89,0.1365
1.11,1.23,-0.49,-27.41,-221.69,-46.55,-17.87,-25.78,-24.32,0.79,-0.7,-1.95,0.1366
0.3,0.93,-0.29,7.29,101.52,-18.41,-17.87,-25.78,-24.02,1.15,-0.29,-2.17,0.1368
0.55,0.92,0.02,-24.3,-18.49,-16.86,-17.87,-26.07,-23.73,1.03,-0.54,-1.98,0.1369
0.28,1.03,-0.04,-17.86,29.77,-12.06,-18.16,-24.61,-23.44,1.3,-0.27,-2.17,0.137
0.58,0.91,0.14,-11.42,48.07,-12.49,-17.58,-25.2,-22.85,0.99,-0.57,-1.98,0.1372
0.38,1.0,0.1,1.77,57.98,-19.2,-17.87,-24.61,-22.56,1.2,-0.36,-2.1,0.1373
0.4,0.97,0.03,-2.43,-2.6,-26.44,-19.04,-23.44,-21.97,1.18,-0.39,-2.11,0.1374
0.27,0.98,0.08,-1.8,1.67,-21.48,-19.04,-24.02,-22.56,1.29,-0.27,-2.17,0.1375
0.31,1.0,0.06,-7.23,-28.86,-18.89,-19.04,-23.14,-21.97,1.27,-0.3,-2.16,0.1377
0.27,0.99,0.03,-13.63,-43.82,-14.97,-19.63,-23.44,-21.97,1.3,-0.27,-2.18,0.1378
0.26,1.0,0.11,-13.83,-35.74,-10.5,-19.63,-23.14,-22.27,1.29,-0.25,-2.2,0.1379
0.27,1.0,0.05,-25.91,-53.22,-8.69,-19.04,-23.73,-21.97,1.3,-0.27,-2.17,0.1381
0.22,1.0,-0.11,-34.05,-30.14,3.96,-18.46,-22.85,-22.56,1.33,-0.21,-2.23,0.1382
0.2,1.03,-0.08,-45.08,-38.75,11.53,-18.16,-23.44,-20.8,1.37,-0.19,-2.2,0.1383
0.72,0.93,0.01,-66.78,-112.14,12.7,-16.11,-23.14,-21.39,0.91,-0.66,-1.94,0.1384
0.64,1.09,0.28,-27.67,-122.3,17.27,-15.82,-24.32,-20.51,1.0,-0.52,-1.98,0.1386
0.37,0.8,0.44,-10.12,12.99,11.31,-16.11,-25.2,-20.51,0.95,-0.38,-2.08,0.1387
0.58,0.72,0.46,55.0,5.85,16.48,-16.41,-24.61,-20.51,0.77,-0.6,-1.98,0.1388
0.5,0.82,0.27,104.07,35.41,7.16,-16.41,-25.2,-21.68,0.96,-0.52,-1.99,0.139
0.58,0.84,0.15,60.83,-20.71,-12.99,-17.29,-25.78,-22.27,0.95,-0.59,-1.94,0.1391
0.53,0.59,0.66,5.84,42.69,-7.13,-17.29,-24.61,-22.27,0.61,-0.54,-2.07,0.1392
0.5,0.98,-0.01,-3.01,-18.23,-13.32,-16.99,-24.9,-22.56,1.1,-0.47,-2.02,0.1393
0.52,0.94,0.09,11.35,23.58,-8.51,-17.29,-24.32,-22.27,1.06,-0.5,-2.01,0.1395
0.48,0.93,0.09,4.24,-10.11,-13.82,-16.99,-24.61,-22.27,1.09,-0.48,-2.02,0.1396
0.37,1.02,-0.19,6.87,20.94,-2.94,-17.87,-24.9,-22.85,1.18,-0.34,-2.12,0.1397
0.48,0.95,0.07,0.91,-4.71,-7.3,-17.87,-24.61,-22.85,1.1,-0.47,-2.04,0.1399
0.44,0.96,0.07,4.1,10.95,-3.78,-17.87,-24.02,-21.97,1.13,-0.43,-2.06,0.14
0.44,0.97,0.04,0.64,-5.45,-4.63,-18.16,-24.61,-22.85,1.15,-0.42,-2.07,0.1401
0.45,0.95,0.05,0.6,-0.4,-3.58,-17.87,-23.73,-23.14,1.13,-0.44,-2.08,0.1402
0.42,0.96,0.07,1.44,3.46,-2.38,-17.29,-24.61,-23.14,1.15,-0.41,-2.07,0.1404
0.43,0.96,0.06,1.3,1.46,-2.3,-18.16,-24.02,-22.27,1.14,-0.42,-2.07,0.1405
0.43,0.95,0.07,1.45,0.6,-1.94,-18.16,-23.44,-22.56,1.14,-0.43,-2.09,0.1406
0.43,0.96,0.06,0.99,1.62,-1.32,-17.87,-24.61,-22.56,1.15,-0.42,-2.06,0.1407
0.43,0.95,0.09,1.57,1.75,-1.11,-17.87,-23.73,-21.97,1.14,-0.42,-2.07,0.1408
0.43,0.96,0.07,1.91,0.9,-1.14,-17.87,-23.73,-22.27,1.14,-0.42,-2.08,0.141
0.42,0.96,0.09,2.1,0.85,-1.11,-18.16,-23.73,-22.27,1.15,-0.41,-2.09,0.1411
0.42,0.95,0.08,2.53,-0.34,-1.21,-18.75,-23.73,-22.27,1.14,-0.42,-2.09,0.1412
0.42,0.96,0.08,2.19,-2.74,-1.59,-17.87,-24.02,-22.85,1.15,-0.41,-2.08,0.1413
0.43,0.96,0.08,2.66,-1.54,-1.44,-17.87,-23.73,-21.97,1.14,-0.42,-2.07,0.1415
0.42,0.96,0.09,3.17,-2.23,-1.37,-18.75,-23.14,-22.56,1.15,-0.41,-2.11,0.1416
0.42,0.96,0.08,3.14,0.29,-0.93,-18.16,-23.44,-21.97,1.15,-0.41,-2.09,0.1417
0.42,0.96,0.07,2.97,1.1,-1.06,-17.87,-23.73,-22.56,1.15,-0.41,-2.09,0.1418
0.42,0.95,0.08,2.66,1.53,-1.27,-18.46,-23.73,-21.97,1.15,-0.42,-2.08,0.142
0.42,0.96,0.08,3.38,3.91,-0.81,-17.87,-23.14,-21.97,1.15,-0.41,-2.09,0.1421
0.42,0.96,0.08,3.37,1.5,-0.73,-18.75,-23.44,-22.56,1.15,-0.41,-2.1,0.1422
0.42,0.96,0.07,3.34,0.95,-0.95,-18.46,-23.44,-22.56,1.16,-0.41,-2.1,0.1423
0.41,0.96,0.08,3.2,0.47,-0.8,-17.58,-23.14,-21.97,1.16,-0.41,-2.09,0.1424
0.41,0.96,0.07,3.04,-0.85,-1.08,-17.87,-23.73,-22.27,1.16,-0.4,-2.09,0.1426
0.41,0.96,0.08,2.82,-0.83,-0.83,-18.75,-24.02,-21.97,1.16,-0.4,-2.09,0.1427
0.41,0.96,0.08,3.0,0.77,-0.4,-17.87,-23.73,-21.97,1.16,-0.4,-2.08,0.1428
0.41,0.96,0.08,2.85,-0.41,-0.4,-17.87,-23.14,-22.27,1.16,-0.4,-2.1,0.1429
0.41,0.96,0.07,2.8,-0.7,-0.25,-17.87,-24.32,-22.56,1.16,-0.4,-2.08,0.1431
0.41,0.96,0.07,2.8,0.67,-0.12,-17.58,-24.02,-22.27,1.16,-0.4,-2.08,0.1432
0.42,0.96,0.08,3.18,-0.27,-0.49,-18.16,-22.85,-21.68,1.16,-0.41,-2.1,0.1433
0.41,0.96,0.08,2.91,-0.08,-0.74,-18.16,-23.14,-22.27,1.16,-0.41,-2.1,0.1434
0.41,0.96,0.08,3.52,1.22,-0.92,-18.75,-23.44,-21.97,1.16,-0.4,-2.1,0.1436
0.41,0.96,0.08,3.14,0.62,-0.95,-18.46,-24.32,-22.85,1.16,-0.4,-2.09,0.1437
0.4,0.96,0.07,3.24,1.45,-0.5,-18.16,-23.44,-21.97,1.17,-0.4,-2.1,0.1438
0.41,0.96,0.08,3.61,0.44,-0.6,-18.46,-23.44,-22.27,1.16,-0.4,-2.1,0.1439
0.41,0.97,0.08,3.62,-1.53,-1.37,-17.87,-23.14,-22.27,1.16,-0.4,-2.1,0.1441
0.42,0.96,0.09,5.58,-3.47,-2.95,-19.34,-23.44,-22.27,1.15,-0.41,-2.1,0.1442
0.41,0.96,0.09,7.32,-5.55,-4.22,-17.87,-23.14,-23.44,1.15,-0.41,-2.12,0.1443
0.41,0.96,0.06,7.65,-9.61,-4.99,-18.46,-23.44,-22.27,1.16,-0.4,-2.1,0.1444
0.4,0.98,0.05,8.31,-5.36,-4.75,-17.87,-23.44,-22.27,1.18,-0.38,-2.1,0.1446
0.39,0.98,0.04,6.15,-12.05,-5.62,-18.75,-23.44,-23.14,1.19,-0.38,-2.13,0.1447
0.38,0.98,0.02,3.36,-15.58,-4.56,-19.34,-23.73,-22.85,1.2,-0.37,-2.13,0.1448
0.38,0.98,0.04,4.25,-4.63,-1.41,-18.75,-23.14,-22.56,1.2,-0.37,-2.13,0.1449
0.39,0.99,0.01,2.69,-3.82,-0.51,-19.04,-22.56,-22.85,1.2,-0.38,-2.15,0.1451
0.39,0.98,0.0,1.49,0.14,-0.22,-19.04,-23.14,-23.44,1.2,-0.37,-2.14,0.1452
0.42,0.97,0.02,0.83,4.44,-0.62,-18.46,-23.73,-22.27,1.17,-0.4,-2.09,0.1453
0.4,0.98,0.01,0.57,9.77,-0.85,-19.34,-23.44,-22.56,1.18,-0.39,-2.12,0.1454
0.39,0.98,0.02,-0.05,9.44,-1.19,-18.75,-23.44,-22.27,1.19,-0.38,-2.11,0.1455
0.38,0.98,0.06,-2.4,3.86,-1.97,-18.46,-23.73,-21.97,1.2,-0.37,-2.11,0.1457
0.36,0.98,0.05,-2.98,5.65,-0.72,-19.04,-23.14,-21.97,1.22,-0.35,-2.13,0.1458
0.37,0.98,0.06,-4.23,3.91,0.16,-18.46,-23.14,-22.27,1.2,-0.36,-2.13,0.1459
0.38,0.97,0.05,-5.74,3.41,-0.37,-18.75,-23.14,-21.97,1.2,-0.37,-2.12,0.146
0.37,0.97,0.05,-6.03,8.69,0.1,-18.46,-23.14,-21.68,1.21,-0.36,-2.12,0.1462
0.37,0.97,0.05,-6.88,6.47,-0.4,-18.75,-23.14,-21.09,1.2,-0.36,-2.11,0.1463
0.36,0.97,0.08,-5.44,10.44,-0.05,-18.46,-23.14,-20.8,1.21,-0.36,-2.11,0.1464
0.36,0.96,0.09,-7.74,8.39,3.41,-18.46,-22.85,-20.21,1.2,-0.35,-2.11,0.1465
0.42,0.92,0.26,-3.59,13.25,-0.76,-18.16,-22.85,-20.21,1.08,-0.42,-2.09,0.1467
0.32,0.93,0.24,7.6,40.94,2.27,-17.87,-22.85,-20.21,1.16,-0.32,-2.14,0.1468
0.35,0.94,0.25,15.34,46.77,1.95,-18.16,-23.44,-20.8,1.14,-0.35,-2.13,0.1469
0.36,0.95,0.19,16.33,38.62,-2.88,-18.16,-22.56,-19.92,1.17,-0.35,-2.12,0.147
0.17,0.99,0.09,16.84,65.8,11.7,-18.16,-21.97,-20.21,1.38,-0.17,-2.23,0.1472
0.21,0.98,0.14,17.19,71.21,22.81,-18.46,-23.44,-20.51,1.32,-0.21,-2.19,0.1473
0.24,0.99,0.23,20.36,69.96,29.2,-18.16,-23.73,-20.51,1.25,-0.23,-2.18,0.1474
0.41,0.91,0.17,17.75,31.2,16.85,-17.29,-23.44,-19.92,1.11,-0.42,-2.05,0.1475
0.37,0.96,0.07,5.64,-16.64,1.21,-17.29,-22.85,-20.51,1.2,-0.37,-2.09,0.1477
0.31,0.98,0.03,3.24,-22.32,2.73,-17.58,-23.14,-20.51,1.26,-0.31,-2.12,0.1478
0.2,1.01,0.15,5.17,-15.14,12.12,-17.58,-23.44,-20.21,1.33,-0.19,-2.19,0.1479
0.25,0.98,0.17,18.29,9.14,27.34,-17.87,-24.61,-20.8,1.27,-0.24,-2.15,0.148
0.4,0.95,0.09,13.91,-25.73,21.56,-16.41,-24.32,-21.09,1.17,-0.39,-2.05,0.1482
0.38,0.97,0.06,17.35,-36.19,21.2,-16.99,-25.2,-21.39,1.19,-0.38,-2.05,0.1483
0.42,0.97,0.06,23.43,-27.29,28.11,-16.41,-25.49,-21.39,1.16,-0.41,-2.02,0.1484
0.48,0.97,-0.13,17.81,-16.96,30.33,-15.53,-25.2,-21.97,1.1,-0.45,-2.0,0.1485
0.1,1.14,-0.14,23.15,90.24,44.92,-15.53,-26.66,-21.68,1.42,-0.09,-2.22,0.1487
0.26,1.0,-0.03,13.02,137.67,26.23,-14.94,-26.07,-19.92,1.32,-0.25,-2.06,0.1488
0.18,0.92,0.32,56.01,216.14,18.0,-14.36,-26.66,-19.04,1.19,-0.18,-2.12,0.1489
0.49,1.0,0.34,98.25,235.34,8.7,-14.65,-25.2,-17.29,1.04,-0.43,-1.95,0.1491
0.9,0.81,0.49,107.0,71.84,-15.59,-14.94,-25.2,-17.58,0.67,-0.76,-1.85,0.1492
1.75,0.53,0.97,-22.0,-149.31,-11.89,-14.94,-25.2,-18.75,0.26,-1.01,-1.95,0.1493
0.2,0.89,-0.21,20.33,38.55,-10.86,-16.11,-25.2,-19.04,1.26,-0.21,-2.12,0.1494
0.17,1.11,-0.36,12.55,35.93,3.79,-15.23,-25.2,-19.34,1.23,-0.14,-2.19,0.1496
0.41,0.99,0.02,-1.78,-23.53,-6.18,-15.82,-25.2,-19.63,1.18,-0.39,-2.0,0.1497
0.35,0.98,0.1,5.79,4.35,-2.51,-15.23,-24.9,-19.34,1.22,-0.34,-2.02,0.1498
0.33,1.02,-0.05,1.91,-18.87,-6.1,-15.23,-24.9,-19.04,1.25,-0.31,-2.03,0.1499
0.32,1.02,-0.07,0.11,-20.87,-4.84,-16.11,-24.61,-19.63,1.26,-0.3,-2.07,0.1501
0.35,1.01,-0.0,3.06,-9.2,-1.3,-15.53,-26.07,-19.34,1.24,-0.33,-2.0,0.1502
0.34,1.01,-0.04,1.1,-14.69,-0.17,-15.82,-25.49,-19.92,1.24,-0.33,-2.03,0.1503
0.33,1.03,-0.11,0.72,-5.5,1.07,-16.41,-25.2,-19.34,1.25,-0.31,-2.05,0.1504
0.37,1.01,-0.01,2.53,3.11,2.6,-15.23,-26.07,-20.51,1.22,-0.35,-2.01,0.1506
0.4,1.01,-0.02,2.78,-3.88,1.3,-14.94,-24.9,-19.34,1.19,-0.38,-2.0,0.1507
0.39,1.07,-0.06,6.27,-9.86,0.0,-15.53,-24.9,-19.34,1.22,-0.35,-2.02,0.1508
0.45,1.01,0.03,30.82,27.87,14.23,-15.53,-25.2,-19.34,1.15,-0.42,-1.97,0.1509
0.47,0.87,-0.1,14.18,55.56,32.03,-16.11,-24.9,-19.04,1.07,-0.49,-1.95,0.1511
0.78,0.91,-0.02,-15.34,-55.41,24.48,-14.94,-25.49,-19.34,0.86,-0.71,-1.82,0.1512
0.46,1.02,-0.07,-7.48,-46.6,16.75,-15.53,-25.78,-19.34,1.15,-0.42,-1.96,0.1514
0.4,0.95,-0.1,-10.22,-18.01,6.58,-16.11,-26.07,-19.63,1.16,-0.4,-1.98,0.1515
0.33,0.91,-0.11,-11.39,-22.8,-18.55,-15.23,-25.2,-19.34,1.2,-0.34,-2.02,0.1516
0.34,1.03,0.16,-4.81,-6.53,-37.12,-15.82,-25.49,-20.51,1.22,-0.32,-2.06,0.1518
0.37,1.06,-0.24,-2.84,25.22,-25.32,-15.53,-24.9,-19.92,1.18,-0.32,-2.06,0.1519
0.42,0.99,0.01,5.62,3.92,-21.82,-16.11,-24.32,-20.51,1.17,-0.4,-2.03,0.152
0.33,1.03,-0.0,0.34,4.12,-19.91,-16.11,-23.44,-19.92,1.26,-0.31,-2.09,0.1521
0.29,1.02,-0.06,-5.76,-19.68,-17.73,-15.82,-23.44,-19.34,1.29,-0.28,-2.1,0.1523
0.27,1.01,0.01,-6.73,-8.32,-10.54,-16.41,-24.32,-19.63,1.31,-0.26,-2.09,0.1524
0.31,1.0,0.0,-5.98,-13.31,-9.43,-16.11,-24.61,-19.04,1.27,-0.3,-2.05,0.1525
0.28,1.03,-0.03,-4.38,-8.13,-6.65,-16.7,-23.73,-18.75,1.3,-0.27,-2.09,0.1527
0.31,1.02,0.03,-4.54,-18.17,-6.86,-15.82,-24.02,-19.04,1.28,-0.29,-2.07,0.1528
0.28,1.01,0.04,-1.24,-15.85,-4.56,-16.41,-23.73,-19.04,1.3,-0.27,-2.09,0.1529
0.29,1.01,0.01,-1.28,-21.51,-4.27,-16.41,-24.32,-19.63,1.29,-0.28,-2.08,0.153
0.28,1.02,0.03,-0.92,-18.17,-2.2,-16.41,-24.32,-19.63,1.3,-0.27,-2.09,0.1532
0.27,1.02,-0.01,-0.79,-15.98,-0.4,-15.82,-24.61,-20.21,1.31,-0.26,-2.1,0.1533
0.28,1.01,-0.01,0.56,-13.58,-0.35,-15.82,-24.32,-19.63,1.3,-0.27,-2.08,0.1534
0.32,0.99,0.07,3.26,-21.39,-0.86,-16.11,-23.73,-19.63,1.25,-0.31,-2.08,0.1535
0.36,1.01,-0.02,3.02,-33.05,-3.26,-16.11,-23.73,-19.92,1.23,-0.34,-2.07,0.1537
0.33,1.01,-0.03,3.72,-23.37,-2.4,-16.99,-24.61,-20.21,1.25,-0.32,-2.07,0.1538
0.31,1.02,0.01,3.04,-16.27,-1.79,-16.41,-24.32,-20.51,1.27,-0.3,-2.09,0.1539
0.29,1.01,-0.03,2.95,-5.3,0.57,-16.11,-24.32,-20.21,1.29,-0.28,-2.1,0.154
0.35,1.01,-0.06,2.47,-11.38,-4.66,-15.82,-24.9,-20.51,1.23,-0.33,-2.05,0.1542
0.3,1.05,-0.13,0.69,-0.74,-3.24,-15.82,-25.2,-20.51,1.27,-0.28,-2.09,0.1543
0.37,1.01,0.02,1.92,8.85,-1.81,-16.41,-25.2,-20.51,1.22,-0.35,-2.04,0.1544
0.34,0.96,0.03,-0.56,0.79,-1.91,-16.7,-24.32,-19.63,1.23,-0.34,-2.05,0.1545
0.35,0.98,0.16,4.76,-9.17,-7.0,-16.11,-24.32,-20.51,1.2,-0.34,-2.07,0.1547
0.27,1.03,-0.1,3.28,-5.7,-5.65,-15.82,-24.61,-19.63,1.3,-0.26,-2.09,0.1654
0.29,1.01,0.01,1.37,-20.79,-6.51,-16.99,-24.9,-19.92,1.29,-0.28,-2.08,0.2352
0.32,0.98,0.05,1.49,-25.24,-7.68,-16.41,-24.61,-20.8,1.25,-0.31,-2.08,0.3089
0.3,1.01,0.04,4.81,-26.15,-6.02,-16.41,-24.32,-20.8,1.28,-0.29,-2.1,0.3826
0.3,1.01,-0.01,2.3,-29.81,-5.27,-16.7,-24.02,-20.51,1.28,-0.29,-2.1,0.4564
0.29,1.02,-0.09,-0.82,-38.25,-5.97,-16.7,-24.61,-21.09,1.28,-0.27,-2.12,0.5301
0.25,1.03,-0.08,1.3,-16.92,-2.61,-17.29,-24.32,-21.97,1.32,-0.24,-2.16,0.6039
0.32,1.0,0.02,1.37,-20.59,-3.34,-17.58,-24.02,-21.09,1.26,-0.31,-2.11,0.6736
0.29,1.04,-0.08,6.92,-14.67,-1.34,-17.87,-24.02,-21.97,1.29,-0.27,-2.15,0.7473
0.27,1.03,-0.1,2.14,-15.33,-2.17,-16.7,-24.61,-21.68,1.3,-0.26,-2.14,0.8211
0.33,1.02,-0.05,6.37,-19.83,-2.75,-16.7,-23.73,-21.97,1.25,-0.31,-2.12,0.8946
0.29,1.02,-0.09,1.63,-7.6,-1.54,-16.99,-24.61,-21.97,1.29,-0.27,-2.14,0.9683
0.31,1.01,-0.05,-0.23,-5.04,-1.95,-17.58,-24.02,-22.27,1.27,-0.3,-2.14,1.042
0.34,0.99,-0.01,-2.98,-14.14,-4.2,-17.58,-24.61,-22.56,1.24,-0.33,-2.11,1.1119
0.28,1.04,-0.11,2.26,0.92,-1.02,-17.58,-24.32,-22.56,1.28,-0.27,-2.16,1.1856
0.29,1.04,-0.07,11.5,13.92,3.64,-16.99,-23.73,-22.27,1.29,-0.27,-2.16,1.2592
0.32,1.01,-0.05,5.62,7.29,2.64,-17.58,-24.32,-22.27,1.26,-0.31,-2.13,1.333
0.31,1.03,-0.09,5.79,9.18,3.56,-17.58,-24.32,-22.27,1.27,-0.29,-2.14,1.4067
0.32,1.01,-0.04,4.27,8.27,2.93,-17.29,-24.32,-21.68,1.26,-0.31,-2.11,1.4765
0.32,1.02,-0.08,3.5,9.51,2.4,-16.99,-24.61,-22.27,1.26,-0.3,-2.12,1.5501
0.32,1.01,-0.05,2.4,4.21,1.45,-16.11,-24.32,-21.97,1.26,-0.31,-2.11,1.6238
0.34,1.01,-0.04,1.27,1.33,0.61,-16.99,-24.9,-21.68,1.24,-0.33,-2.09,1.6975
0.33,1.01,-0.06,2.28,0.84,0.16,-17.58,-24.02,-21.68,1.25,-0.32,-2.12,1.7712
0.33,1.01,-0.04,-0.72,-4.68,-1.61,-16.7,-24.61,-21.68,1.25,-0.31,-2.1,1.845
0.32,1.01,0.0,-2.71,-6.21,-3.58,-17.29,-24.61,-21.97,1.26,-0.31,-2.11,1.9146
0.36,1.01,-0.06,-1.74,-8.2,-3.8,-17.58,-24.32,-21.97,1.23,-0.34,-2.1,1.9884
0.31,1.02,-0.07,0.52,-5.96,-3.17,-18.16,-24.61,-21.68,1.27,-0.29,-2.13,2.062
0.32,1.01,-0.05,2.42,-3.34,-2.24,-17.29,-24.32,-20.8,1.26,-0.3,-2.1,2.1357
0.32,1.02,-0.04,5.52,-1.76,-1.13,-16.41,-24.32,-22.27,1.27,-0.3,-2.12,2.2094
0.32,1.01,-0.05,3.65,0.63,-1.28,-17.87,-23.44,-21.68,1.26,-0.3,-2.14,2.2792
0.3,1.02,-0.05,4.75,2.38,-0.54,-16.7,-24.61,-21.68,1.28,-0.29,-2.12,2.3529
0.31,1.01,-0.05,6.74,5.31,0.79,-16.7,-24.32,-21.97,1.27,-0.3,-2.12,2.4266
0.3,1.02,-0.08,4.99,8.47,1.12,-17.29,-24.02,-22.27,1.27,-0.29,-2.14,2.5004
0.32,1.02,-0.05,4.78,6.03,0.76,-17.29,-24.32,-22.27,1.26,-0.3,-2.13,2.5741
0.28,1.02,-0.06,2.33,8.13,0.93,-16.99,-24.32,-21.09,1.29,-0.27,-2.12,2.6438
0.33,1.01,-0.03,1.94,1.95,0.1,-17.29,-24.9,-21.68,1.25,-0.32,-2.1,2.7175
0.33,1.01,-0.03,3.3,3.89,0.24,-17.29,-24.02,-21.39,1.26,-0.31,-2.11,2.7913
0.31,1.02,-0.04,3.97,0.56,-0.62,-17.58,-23.73,-21.68,1.27,-0.3,-2.13,2.8649
0.3,1.02,-0.06,3.05,2.06,-0.48,-16.99,-24.61,-21.68,1.28,-0.29,-2.12,2.9386
0.31,1.01,-0.06,3.36,3.83,0.21,-16.41,-24.9,-21.09,1.27,-0.3,-2.09,3.0084
0.29,1.02,-0.06,4.02,9.02,1.3,-17.29,-23.73,-21.97,1.29,-0.28,-2.15,3.0821
0.31,1.02,-0.03,3.24,6.77,0.72,-16.99,-24.61,-21.09,1.27,-0.3,-2.1,3.1558
0.31,1.01,-0.05,1.72,3.03,0.95,-17.29,-23.73,-20.8,1.27,-0.29,-2.12,3.2294
0.3,1.02,-0.03,1.28,-0.56,0.02,-17.29,-24.02,-21.39,1.28,-0.29,-2.12,3.3032
0.37,1.01,-0.01,1.92,-9.54,-1.17,-17.29,-24.02,-21.39,1.22,-0.35,-2.09,3.3769
0.32,1.01,-0.02,1.12,-8.69,-3.31,-17.29,-24.32,-21.68,1.27,-0.3,-2.12,3.4466
0.28,1.03,-0.14,3.77,7.98,0.38,-16.99,-24.32,-21.97,1.28,-0.26,-2.15,3.5204
0.3,1.02,-0.06,1.65,5.33,-0.17,-16.99,-24.61,-21.68,1.28,-0.29,-2.12,3.594
0.31,1.01,-0.04,0.92,5.9,-0.07,-16.99,-24.32,-21.39,1.27,-0.3,-2.11,3.6678
0.29,1.01,-0.04,7.52,32.93,5.79,-16.99,-25.2,-20.8,1.29,-0.28,-2.09,3.7415
0.29,1.02,-0.03,13.28,58.43,11.58,-17.29,-23.73,-21.09,1.29,-0.28,-2.13,3.8153
0.25,1.03,-0.06,16.14,77.84,18.89,-16.41,-24.02,-20.21,1.32,-0.24,-2.13,3.8851
0.2,1.04,-0.03,13.94,83.07,21.56,-15.82,-24.32,-20.21,1.38,-0.19,-2.15,3.9587
0.3,1.02,0.01,11.05,61.84,25.05,-15.82,-24.32,-19.04,1.28,-0.29,-2.06,4.0325
0.23,1.02,-0.06,10.86,72.08,29.7,-16.11,-24.32,-19.92,1.35,-0.22,-2.13,4.1062
0.41,0.97,0.07,-1.61,51.27,31.75,-15.82,-24.32,-19.04,1.16,-0.4,-2.0,4.1798
0.28,1.02,-0.13,1.36,65.01,38.12,-14.65,-25.49,-19.04,1.27,-0.27,-2.05,4.2536
0.42,0.96,-0.06,-11.71,26.02,31.97,-13.77,-23.73,-17.29,1.15,-0.41,-1.95,4.3273
0.46,0.95,-0.2,-21.2,-7.84,32.57,-13.48,-25.2,-16.7,1.09,-0.44,-1.9,4.3971
0.37,1.15,-0.1,-26.37,13.33,41.34,-12.01,-24.9,-16.7,1.25,-0.31,-1.96,4.4709
0.4,1.17,-0.05,-43.35,57.1,28.55,-11.43,-24.61,-14.36,1.24,-0.33,-1.88,4.5445
0.66,0.98,0.18,-25.48,6.42,-14.66,-11.43,-24.61,-13.48,0.96,-0.58,-1.73,4.6181
0.53,0.88,0.2,61.41,27.66,-51.8,-12.89,-25.2,-12.01,1.0,-0.53,-1.75,4.6918
0.49,0.81,0.17,134.86,-25.54,-63.45,-14.65,-24.32,-12.89,1.0,-0.54,-1.81,4.7655
0.38,0.76,0.06,107.38,43.46,-23.83,-16.7,-24.02,-14.06,1.11,-0.46,-1.89,4.8393
0.41,1.02,-0.11,139.7,-15.9,-22.54,-19.63,-24.02,-16.41,1.17,-0.38,-2.01,4.909
0.1,0.82,-0.72,-15.88,24.12,-16.67,-20.21,-23.44,-15.53,0.84,-0.09,-2.33,4.9827
1.11,1.87,0.02,-44.13,58.36,-21.7,-19.63,-22.27,-14.94,1.03,-0.54,-1.97,5.0564
-0.47,0.94,0.45,-47.46,237.72,-2.6,-19.34,-20.8,-13.18,0.97,0.43,-2.69,5.1301
0.2,0.99,0.26,-71.4,-64.92,-10.73,-18.16,-21.39,-11.72,1.25,-0.19,-2.07,5.2039
0.31,1.04,0.21,-38.83,-2.27,-16.8,-17.87,-21.09,-12.3,1.23,-0.28,-2.03,5.2776
0.11,1.04,-0.37,-56.7,-33.63,-11.41,-17.29,-22.56,-10.84,1.22,-0.1,-2.11,5.3513
0.26,1.02,0.07,-57.34,-27.0,-9.46,-16.41,-21.97,-9.96,1.32,-0.25,-1.91,5.4211
0.22,1.07,0.02,-73.07,-23.77,-10.72,-15.23,-22.56,-9.38,1.37,-0.2,-1.88,5.4949
0.32,1.09,-0.13,-91.38,-26.88,8.95,-13.77,-22.27,-8.2,1.27,-0.28,-1.81,5.569
0.22,1.19,-0.37,-86.47,39.55,42.59,-12.6,-22.85,-5.86,1.23,-0.17,-1.82,5.6422
1.15,1.45,-0.58,-154.2,-203.77,9.06,-10.84,-26.37,-4.98,0.84,-0.63,-1.51,5.7159
0.49,1.23,0.85,-15.43,-44.06,-48.33,-12.3,-27.83,-4.98,0.9,-0.32,-1.73,5.7896
0.5,0.58,0.78,144.78,43.87,-61.36,-16.7,-25.2,-5.57,0.56,-0.47,-1.97,5.8593
0.55,0.22,0.67,228.02,27.02,-35.27,-21.39,-22.56,-9.38,0.25,-0.66,-2.25,5.933
0.44,0.31,0.72,184.55,24.14,-28.2,-25.2,-19.63,-14.65,0.35,-0.52,-2.36,6.0068
0.22,1.22,0.05,222.59,38.31,-10.68,-27.25,-18.75,-19.92,1.39,-0.18,-2.33,6.0805
0.18,0.66,-1.02,-62.11,55.1,2.69,-27.25,-18.75,-19.92,0.57,-0.15,-2.55,6.1545
0.45,1.44,-0.27,-100.27,-7.25,-31.17,-26.07,-17.58,-18.75,1.22,-0.3,-2.32,6.228
0.43,0.73,0.44,-66.28,17.88,-22.77,-25.49,-16.7,-17.29,0.87,-0.47,-2.35,6.2977
0.04,1.06,0.34,-47.54,28.81,-15.48,-24.9,-15.82,-16.11,1.26,-0.03,-2.51,6.3715
0.16,1.08,-0.45,-61.86,-22.47,-9.67,-24.02,-17.58,-14.65,1.16,-0.13,-2.39,6.445
0.2,1.04,0.07,-72.68,-39.45,-6.93,-23.44,-16.41,-13.77,1.37,-0.19,-2.24,6.5188
0.27,0.96,0.23,-70.47,-25.9,-0.43,-22.27,-16.99,-12.3,1.21,-0.27,-2.21,6.5926
0.27,1.02,-0.02,-82.48,-29.96,4.52,-20.8,-17.58,-10.55,1.31,-0.26,-2.07,6.6663
0.14,1.15,-0.39,-91.79,36.66,41.21,-19.34,-18.16,-9.67,1.22,-0.12,-2.19,6.736
1.01,1.0,-1.52,-159.68,-250.0,45.34,-17.29,-21.09,-6.45,0.5,-0.51,-2.11,6.8097
0.14,1.52,0.89,-19.23,33.58,2.27,-15.53,-20.51,-7.32,1.03,-0.08,-2.12,6.8835
0.5,0.7,0.92,106.22,35.25,-30.07,-14.94,-19.34,-8.79,0.58,-0.41,-2.11,6.9572
0.49,0.23,0.77,223.11,49.17,-42.38,-16.41,-18.46,-10.55,0.25,-0.55,-2.21,7.0308
0.46,0.21,0.71,239.78,21.33,-30.28,-19.04,-16.7,-13.48,0.24,-0.55,-2.3,7.1046
0.37,1.03,0.35,249.99,-4.62,-48.33,-21.09,-15.53,-16.41,1.12,-0.32,-2.33,7.1784
0.05,0.83,-1.04,-29.77,-34.29,-31.88,-20.21,-15.53,-14.36,0.67,-0.04,-2.56,7.252
0.73,1.47,0.54,31.23,133.9,3.79,-19.34,-14.36,-12.6,1.02,-0.44,-2.25,7.3218
-0.08,0.98,0.52,-80.89,200.77,12.57,-19.34,-12.89,-12.6,1.08,0.07,-2.62,7.3954
0.39,0.77,0.25,-62.99,-83.49,-19.99,-18.46,-13.77,-11.72,1.03,-0.45,-2.23,7.4691
0.09,1.03,-0.17,-51.19,-7.52,-1.62,-16.41,-14.06,-10.84,1.39,-0.08,-2.26,7.5429
0.29,1.04,-0.02,-71.59,-57.98,-11.44,-14.94,-15.23,-8.79,1.3,-0.27,-2.02,7.6165
0.21,0.97,0.11,-70.61,-51.16,-3.79,-13.48,-16.11,-7.32,1.33,-0.21,-1.95,7.6863
0.27,1.03,0.07,-77.31,-40.5,4.66,-11.72,-18.16,-6.15,1.31,-0.26,-1.8,7.76
0.17,1.03,-0.23,-88.71,6.69,38.12,-9.96,-17.58,-4.1,1.3,-0.16,-1.78,7.8338
0.33,1.32,-0.42,-78.48,11.52,72.33,-8.2,-19.04,-0.88,1.19,-0.23,-1.56,7.9075
-0.33,1.4,-0.11,-60.46,-17.1,20.09,-7.62,-24.32,3.81,1.33,0.23,-1.72,7.9811
0.67,0.98,0.94,15.83,-7.81,-24.46,-9.67,-26.37,5.57,0.7,-0.46,-1.41,8.0509
0.53,0.53,0.74,155.65,32.49,-62.26,-18.16,-25.78,4.69,0.53,-0.53,-1.92,8.1247
0.55,0.18,0.71,241.04,60.45,-39.22,-27.25,-22.27,-3.22,0.19,-0.64,-2.47,8.1984
0.45,0.33,0.99,249.99,50.77,-32.81,-33.11,-17.58,-11.72,0.29,-0.41,-2.58,8.2721
0.71,1.05,-0.46,131.12,-4.67,-47.98,-35.16,-16.11,-17.87,0.89,-0.56,-2.44,8.3458
-0.09,0.66,-0.34,-106.67,61.7,8.32,-34.57,-14.65,-17.58,1.07,0.13,-2.79,8.4196
0.09,1.16,-0.32,-72.33,167.07,27.92,-33.98,-14.36,-17.29,1.29,-0.08,-2.58,8.4933
0.58,0.74,0.08,-97.66,-61.49,-31.72,-33.4,-15.53,-15.53,0.9,-0.66,-2.38,8.5669
0.35,0.98,0.34,-63.81,-27.2,-2.15,-31.64,-14.65,-13.48,1.11,-0.33,-2.43,8.6368
0.2,0.98,0.18,-61.27,-2.45,-11.28,-31.64,-15.23,-12.6,1.3,-0.2,-2.36,8.7104
0.13,1.0,0.52,-52.06,-0.93,-8.79,-30.76,-14.65,-11.13,1.08,-0.11,-2.54,8.784
0.32,1.01,-0.13,-68.21,-46.42,-3.4,-29.0,-15.53,-9.67,1.24,-0.3,-2.23,8.8578
0.19,1.09,-0.2,-92.22,-20.77,25.92,-27.83,-17.29,-6.74,1.32,-0.17,-2.09,8.9315
0.16,1.34,-0.18,-93.79,2.25,74.78,-25.49,-18.16,-5.86,1.39,-0.12,-1.98,9.0013
0.0,1.23,-0.41,-82.27,-202.8,18.99,-24.9,-21.68,-6.45,1.25,-0.0,-2.14,9.0789
0.68,0.87,0.82,-6.71,22.27,-24.01,-22.85,-19.34,-9.08,0.69,-0.52,-2.23,9.1486
0.57,0.56,0.67,138.08,33.87,-77.42,-21.09,-15.82,-12.89,0.57,-0.58,-2.32,9.2224
0.71,0.23,0.69,224.28,20.71,-57.75,-21.68,-14.06,-16.7,0.23,-0.77,-2.35,9.2961
0.54,0.44,0.86,240.43,-37.36,-95.38,-20.51,-12.89,-20.51,0.41,-0.51,-2.41,9.3699
0.58,1.13,-0.39,181.37,48.8,-19.52,-20.21,-12.89,-23.73,1.02,-0.46,-2.4,9.4435
-0.12,0.69,-0.5,-57.96,108.65,17.97,-19.34,-12.6,-23.44,0.92,0.15,-2.86,9.5172
0.25,1.27,-0.08,-95.31,85.83,11.25,-18.75,-12.6,-21.09,1.36,-0.2,-2.49,9.587
0.25,0.89,0.51,-37.23,69.31,-11.59,-18.46,-12.3,-20.21,1.01,-0.24,-2.54,9.6606
0.33,1.09,0.28,-21.32,-3.61,-11.32,-18.16,-12.6,-20.21,1.19,-0.29,-2.45,9.7344
0.32,1.04,-0.33,-29.88,-43.49,-6.86,-17.87,-13.48,-20.21,1.16,-0.28,-2.43,9.8081
0.19,1.05,-0.08,-32.16,-42.92,-2.9,-17.58,-13.48,-18.46,1.38,-0.18,-2.42,9.8818
0.24,1.01,-0.1,-36.98,-17.56,6.07,-17.29,-13.48,-17.87,1.32,-0.23,-2.38,9.9555
0.01,1.01,-0.59,-54.0,-23.21,24.44,-16.11,-14.65,-16.11,1.04,-0.01,-2.55,10.0292
0.73,1.02,-0.14,-41.89,-104.55,44.94,-15.23,-16.11,-13.48,0.94,-0.62,-2.03,10.099
0.44,0.7,0.68,3.51,8.9,6.0,-15.23,-16.11,-13.18,0.71,-0.43,-2.21,10.1727
0.41,0.88,0.49,77.24,30.5,-17.72,-15.82,-16.41,-14.65,0.94,-0.39,-2.21,10.2464
0.47,0.99,-0.09,-11.25,-50.94,-5.55,-16.7,-16.7,-14.65,1.12,-0.44,-2.11,10.3201
0.17,1.14,0.12,8.69,-36.9,-19.58,-15.82,-16.11,-15.23,1.39,-0.15,-2.27,10.3938
0.42,1.01,0.16,3.68,-12.49,-9.84,-15.53,-15.82,-15.53,1.15,-0.39,-2.17,10.4636
0.39,0.95,-0.02,7.16,-5.55,-6.14,-16.11,-15.82,-16.11,1.18,-0.39,-2.17,10.5373
0.19,1.09,-0.24,0.79,15.69,2.3,-16.7,-16.11,-16.41,1.3,-0.16,-2.33,10.611
0.36,0.97,0.06,-4.72,1.88,0.31,-16.41,-16.41,-16.11,1.21,-0.35,-2.18,10.6846
0.37,0.98,0.1,-0.76,-6.81,-2.82,-15.53,-15.53,-15.82,1.2,-0.36,-2.19,10.7584
0.34,0.99,0.05,-1.3,-9.06,-4.06,-16.11,-16.41,-15.53,1.24,-0.33,-2.17,10.8282
0.32,0.99,0.05,-0.76,-11.41,-3.41,-16.41,-16.41,-16.11,1.25,-0.32,-2.2,10.9019
0.31,1.0,0.05,1.42,2.2,-0.29,-16.7,-16.41,-16.41,1.26,-0.3,-2.21,10.9755
0.34,0.99,0.04,2.35,6.89,0.92,-15.82,-16.41,-15.23,1.24,-0.33,-2.16,11.0492
0.34,0.98,0.08,3.17,5.62,0.5,-16.41,-16.41,-14.94,1.23,-0.33,-2.17,11.123
0.35,0.98,0.07,2.56,-0.61,-0.68,-16.7,-16.11,-15.23,1.22,-0.34,-2.18,11.1967
0.34,0.99,0.08,2.94,-2.16,-1.24,-15.82,-15.82,-15.53,1.23,-0.33,-2.19,11.2665
0.34,0.99,0.07,3.18,-2.33,-1.73,-15.82,-16.41,-15.53,1.23,-0.33,-2.17,11.3402
0.32,0.99,0.05,2.67,-2.21,-2.09,-15.82,-16.11,-14.65,1.25,-0.32,-2.17,11.4139
0.34,0.98,0.07,2.62,-3.41,-2.16,-16.11,-15.82,-16.11,1.23,-0.33,-2.2,11.4876
0.32,1.0,0.05,3.24,-0.56,-1.64,-16.11,-15.82,-15.23,1.25,-0.31,-2.19,11.5613
0.33,0.99,0.06,2.98,0.22,-0.82,-16.11,-15.82,-16.11,1.25,-0.32,-2.21,11.631
0.32,0.99,0.06,3.7,3.63,-0.1,-16.11,-15.82,-15.23,1.25,-0.31,-2.19,11.7049
0.32,0.99,0.06,3.37,3.46,0.43,-16.41,-15.53,-15.53,1.26,-0.31,-2.22,11.7784
0.31,0.99,0.06,3.56,4.05,0.63,-16.41,-15.53,-15.53,1.26,-0.31,-2.22,11.8526
0.32,0.99,0.06,3.63,2.28,0.04,-16.7,-16.11,-15.82,1.25,-0.31,-2.2,11.9258
0.33,0.99,0.05,3.45,1.25,0.1,-16.11,-15.53,-15.82,1.25,-0.32,-2.21,11.9957
0.33,0.99,0.06,2.83,-1.82,-0.79,-16.7,-15.53,-15.53,1.25,-0.32,-2.21,12.0696
0.33,0.99,0.06,2.66,-2.86,-1.06,-16.41,-15.23,-15.23,1.25,-0.32,-2.21,12.143
0.32,0.99,0.06,2.87,-0.69,-0.56,-16.11,-15.82,-16.11,1.25,-0.31,-2.21,12.2168
0.32,0.99,0.06,3.2,0.43,-0.99,-16.7,-14.94,-15.53,1.25,-0.31,-2.24,12.2905
0.32,0.99,0.06,3.46,-0.27,-1.26,-15.82,-15.53,-15.23,1.25,-0.31,-2.2,12.3641
0.31,1.0,0.05,3.17,-1.17,-1.14,-15.53,-15.53,-16.7,1.27,-0.3,-2.24,12.4339
0.32,0.99,0.06,3.17,-2.06,-1.16,-15.82,-16.41,-15.53,1.26,-0.31,-2.18,12.5075
0.32,0.99,0.06,3.16,-1.4,-1.21,-16.11,-16.11,-16.11,1.26,-0.31,-2.21,12.5813
0.32,0.99,0.06,1.91,-7.04,-2.16,-16.11,-15.53,-15.23,1.26,-0.31,-2.21,12.655
0.31,1.0,0.05,2.46,-4.39,-1.23,-15.53,-15.82,-15.82,1.27,-0.3,-2.21,12.7287
0.31,1.0,0.05,3.02,-1.38,-0.05,-16.11,-16.11,-15.53,1.26,-0.3,-2.2,12.7985
0.32,0.99,0.05,3.5,0.51,-0.39,-15.82,-15.82,-14.94,1.25,-0.31,-2.18,12.8723
0.33,0.99,0.04,2.86,-1.22,-0.37,-16.11,-16.11,-15.53,1.25,-0.32,-2.19,12.9459
0.32,0.99,0.05,2.91,-0.95,-0.27,-15.53,-16.11,-15.53,1.26,-0.31,-2.19,13.0196
0.31,0.99,0.05,2.76,-0.36,-0.17,-15.53,-16.11,-16.11,1.26,-0.31,-2.2,13.0932
0.32,0.99,0.05,3.01,0.08,0.11,-16.41,-15.82,-15.53,1.25,-0.31,-2.2,13.163
0.32,0.99,0.05,2.87,0.69,0.18,-16.41,-15.53,-16.41,1.25,-0.31,-2.23,13.2367
0.32,0.99,0.05,2.82,1.37,0.12,-16.41,-16.41,-15.53,1.25,-0.31,-2.18,13.3104
0.32,0.99,0.06,2.9,0.94,0.27,-16.11,-16.11,-15.53,1.26,-0.31,-2.19,13.3843
0.32,1.0,0.05,2.88,-0.27,0.01,-15.53,-16.11,-15.53,1.26,-0.31,-2.19,13.4578
0.32,0.99,0.05,2.83,-0.43,0.38,-16.41,-15.23,-15.82,1.25,-0.31,-2.23,13.5315
0.32,0.99,0.05,3.03,0.37,0.45,-16.11,-15.53,-15.53,1.25,-0.31,-2.21,13.6013
0.32,0.99,0.05,3.15,1.11,0.18,-16.7,-15.82,-15.53,1.25,-0.31,-2.21,13.675
0.32,0.99,0.05,3.14,0.09,0.24,-15.82,-15.82,-15.82,1.25,-0.31,-2.2,13.7487
0.32,0.99,0.05,2.88,-0.31,-0.08,-16.41,-16.11,-15.23,1.25,-0.31,-2.19,13.8224
0.33,0.99,0.05,3.06,0.47,-0.4,-16.11,-15.23,-15.82,1.25,-0.32,-2.22,13.8961
0.32,0.99,0.06,2.98,-0.06,-0.67,-16.41,-15.53,-15.53,1.25,-0.31,-2.21,13.966
0.32,0.99,0.06,2.76,-1.74,-1.15,-15.82,-16.7,-16.11,1.25,-0.32,-2.18,14.0397
0.32,0.99,0.05,2.88,-1.64,-1.09,-16.11,-16.7,-15.82,1.26,-0.31,-2.18,14.1133
0.32,0.99,0.05,2.76,-0.72,-0.67,-16.11,-15.23,-15.23,1.26,-0.31,-2.21,14.1875
0.31,0.99,0.06,2.89,-0.55,-0.87,-16.11,-15.23,-16.11,1.26,-0.31,-2.24,14.2608
0.32,0.99,0.05,2.95,-0.84,-0.24,-16.41,-15.53,-15.23,1.26,-0.31,-2.21,14.3344
0.32,0.99,0.04,2.52,-0.63,-0.13,-16.11,-15.82,-16.11,1.26,-0.31,-2.21,14.4043
0.32,0.99,0.04,2.86,0.92,0.11,-16.11,-16.41,-16.11,1.26,-0.31,-2.2,14.4779
0.32,0.99,0.06,2.98,0.45,-0.05,-16.41,-15.23,-15.82,1.25,-0.31,-2.23,14.5516
0.33,0.99,0.05,2.96,-0.63,-0.42,-16.11,-15.82,-16.41,1.25,-0.32,-2.22,14.6253
0.32,0.99,0.04,3.39,-0.75,-0.49,-16.7,-15.23,-15.53,1.25,-0.31,-2.22,14.699
0.32,0.99,0.05,3.11,-1.91,-0.63,-16.41,-16.41,-16.11,1.25,-0.32,-2.2,14.7698
0.32,0.99,0.04,3.31,-0.56,-0.47,-16.41,-15.82,-15.23,1.25,-0.31,-2.2,14.8425
0.31,0.99,0.04,2.93,0.05,-0.03,-16.41,-15.23,-15.53,1.26,-0.3,-2.22,14.9162
0.32,0.99,0.06,3.32,0.76,0.12,-16.41,-15.82,-15.82,1.25,-0.31,-2.21,14.99
0.32,1.0,0.04,3.01,0.85,0.16,-16.11,-15.82,-15.82,1.26,-0.31,-2.21,15.0636
0.33,0.99,0.04,2.79,-0.04,-0.06,-16.11,-16.41,-16.41,1.25,-0.32,-2.2,15.1333
0.32,0.99,0.06,3.14,0.82,-0.13,-16.7,-14.65,-15.82,1.25,-0.32,-2.25,15.2071
0.32,1.0,0.05,3.29,-0.1,-0.21,-16.11,-15.23,-15.53,1.25,-0.31,-2.22,15.2808
0.32,0.99,0.05,3.65,-0.31,-0.32,-16.99,-16.11,-16.11,1.26,-0.31,-2.21,15.3545
0.3,1.01,0.02,4.41,0.72,-0.85,-16.99,-16.41,-15.23,1.28,-0.29,-2.19,15.4282
0.35,1.0,0.0,4.99,-14.0,-2.69,-16.41,-16.11,-15.82,1.24,-0.33,-2.19,15.5019
0.28,1.0,-0.0,3.0,-13.41,0.4,-15.53,-16.41,-14.65,1.3,-0.28,-2.17,15.5718
0.28,1.02,0.03,13.89,-14.96,-0.6,-16.41,-16.7,-14.94,1.3,-0.27,-2.18,15.6453
0.6,0.9,0.39,18.52,-57.22,-19.56,-16.11,-16.41,-14.36,0.9,-0.55,-2.11,15.7194
0.92,0.91,0.09,-28.72,-229.35,-72.52,-16.11,-18.46,-13.48,0.77,-0.79,-1.95,15.7928
0.31,0.8,-0.01,-114.55,-250.0,-92.41,-14.36,-22.85,-12.6,1.2,-0.37,-1.89,15.8665
-0.3,1.14,0.25,-17.46,-99.58,-17.2,-14.94,-23.44,-13.18,1.24,0.25,-2.43,15.9402
0.51,1.18,0.27,40.19,105.48,-29.37,-15.23,-21.97,-12.6,1.11,-0.4,-1.93,16.014
0.01,1.07,-0.03,-19.57,-154.5,-36.79,-15.82,-23.44,-14.06,1.54,-0.01,-2.11,16.0883
-0.0,1.06,-0.19,8.03,-17.11,-9.82,-15.23,-24.02,-13.48,1.39,0.0,-2.16,16.1575
0.31,1.03,-0.04,-18.29,-123.77,-14.77,-14.94,-24.9,-13.77,1.27,-0.29,-1.92,16.2311
0.24,0.99,-0.02,-18.98,-88.72,-10.64,-15.23,-24.61,-14.06,1.33,-0.24,-1.96,16.3051
0.26,1.01,-0.13,-34.09,-91.06,-4.57,-14.94,-26.37,-14.06,1.29,-0.25,-1.93,16.3785
0.32,0.98,-0.26,-66.33,-152.75,-15.5,-14.36,-27.25,-14.36,1.17,-0.3,-1.91,16.4523
0.55,1.05,-0.1,-70.88,-185.92,-64.68,-13.77,-28.71,-14.65,1.09,-0.48,-1.76,16.526
0.35,1.05,0.18,-67.79,-154.37,-67.86,-14.06,-29.59,-16.11,1.21,-0.32,-1.88,16.5996
0.75,0.98,0.08,45.62,-128.01,-52.83,-16.41,-30.18,-16.41,0.91,-0.65,-1.74,16.6696
0.22,0.93,0.08,100.33,-4.97,-10.03,-16.7,-29.59,-18.16,1.32,-0.23,-1.99,16.7431
0.4,0.87,0.03,134.11,-87.59,-2.59,-19.04,-29.88,-20.51,1.14,-0.43,-1.94,16.8169
0.4,0.97,-0.12,49.27,-128.18,-19.74,-19.92,-30.18,-21.68,1.17,-0.38,-1.99,16.8906
0.03,0.84,-0.41,-19.61,24.59,0.46,-19.92,-29.88,-22.56,1.11,-0.03,-2.32,16.9643
0.62,1.46,-0.06,-20.81,9.99,-10.41,-20.8,-30.47,-20.51,1.17,-0.4,-1.95,17.038
0.12,0.97,0.08,-44.49,160.78,-5.16,-20.8,-29.0,-16.7,1.42,-0.12,-2.05,17.1078
0.16,0.95,0.17,-81.0,-147.62,-34.43,-22.56,-31.05,-18.75,1.33,-0.16,-2.07,17.1816
0.05,1.07,0.08,-30.51,27.19,-0.45,-21.68,-29.88,-16.41,1.48,-0.05,-2.07,17.2553
0.32,1.02,-0.22,-57.09,-38.73,-9.44,-21.09,-31.05,-15.82,1.21,-0.3,-1.94,17.3289
0.18,1.03,0.08,-56.56,-46.49,-6.81,-20.51,-30.76,-14.94,1.38,-0.17,-1.95,17.4028
0.21,0.99,0.05,-60.93,-24.52,1.97,-21.39,-31.64,-14.65,1.36,-0.21,-1.91,17.4764
0.3,1.09,-0.04,-78.06,-40.26,10.01,-19.63,-32.81,-13.48,1.3,-0.27,-1.83,17.5499
0.13,1.09,-0.07,-80.23,29.55,41.62,-19.34,-32.81,-10.55,1.44,-0.12,-1.83,17.6202
0.51,1.3,-0.41,-111.49,-85.66,71.58,-19.34,-35.74,-7.62,1.1,-0.36,-1.68,17.6935
0.15,1.51,0.42,-61.02,-88.04,4.39,-20.51,-38.96,-7.91,1.28,-0.09,-1.82,17.7671
0.69,0.94,0.79,26.43,-14.19,-41.08,-25.2,-38.09,-9.08,0.73,-0.52,-1.87,17.8408
0.53,0.46,0.79,177.82,36.45,-63.02,-31.35,-34.86,-14.36,0.45,-0.53,-2.18,17.9146
0.38,0.16,0.63,234.63,66.44,-32.88,-34.28,-31.64,-24.02,0.21,-0.53,-2.29,17.9883
0.46,0.37,0.61,212.36,-3.17,-26.66,-33.4,-29.59,-32.52,0.45,-0.57,-2.26,18.0582
0.36,1.11,-0.12,131.22,-75.07,-29.92,-32.23,-28.42,-39.26,1.24,-0.31,-2.34,18.1319
0.2,0.84,-0.91,-47.45,83.79,11.63,-32.81,-29.88,-39.26,0.74,-0.16,-2.49,18.2056
-0.52,1.4,-0.07,-112.11,149.97,24.1,-32.23,-31.05,-35.45,1.21,0.36,-2.83,18.2792
0.75,0.89,0.35,-73.26,-60.33,-27.19,-33.98,-29.88,-34.57,0.83,-0.66,-2.15,18.353
0.2,1.03,0.22,-35.28,59.07,-11.76,-33.98,-30.76,-32.81,1.29,-0.19,-2.33,18.4266
0.13,1.03,0.1,-41.79,-9.72,-13.13,-35.16,-30.18,-31.35,1.41,-0.13,-2.34,18.5003
0.02,1.11,-0.22,-66.73,-24.27,-4.96,-35.16,-29.88,-31.35,1.37,-0.01,-2.46,18.5702
0.21,0.98,0.06,-67.34,-34.65,-2.27,-36.62,-29.59,-29.88,1.36,-0.21,-2.29,18.6438
0.27,1.08,-0.02,-80.77,-38.34,5.74,-35.74,-29.0,-27.54,1.32,-0.25,-2.24,18.7175
0.12,1.13,-0.28,-84.26,38.23,41.33,-35.45,-29.59,-24.32,1.31,-0.1,-2.32,18.7913
0.56,1.26,-0.5,-105.09,-136.26,14.81,-33.4,-29.59,-25.2,1.04,-0.39,-2.21,18.8649
-0.03,1.74,0.6,-59.43,-2.01,-3.71,-31.05,-27.54,-26.07,1.24,0.02,-2.49,18.9388
0.86,0.85,0.87,37.54,-3.6,-49.16,-26.37,-25.49,-25.49,0.61,-0.62,-2.19,19.0085
0.59,0.33,0.72,186.21,40.92,-68.77,-23.73,-23.73,-26.95,0.34,-0.64,-2.19,19.0821
0.46,0.15,0.68,242.14,62.56,-41.98,-22.27,-23.44,-30.47,0.17,-0.58,-2.16,19.156
0.42,0.67,0.64,234.02,-52.54,-33.62,-20.21,-22.56,-33.4,0.72,-0.43,-2.27,19.2297
0.4,0.93,-0.47,96.94,93.57,3.24,-19.04,-23.73,-33.4,0.99,-0.36,-2.29,19.3033
0.19,0.86,-0.34,-24.51,71.58,-14.6,-20.51,-23.73,-31.64,1.15,-0.2,-2.4,19.3769
-0.14,1.18,0.13,-76.7,157.03,28.27,-21.09,-25.78,-28.12,1.41,0.12,-2.56,19.4506
0.44,0.98,0.27,-66.58,17.8,-16.08,-22.85,-24.9,-26.07,1.09,-0.41,-2.18,19.5205
0.24,1.01,0.19,-52.7,8.96,-11.96,-23.14,-25.78,-24.61,1.27,-0.23,-2.23,19.5941
0.46,0.99,0.22,-61.58,-91.58,-24.51,-23.14,-25.49,-24.32,1.09,-0.43,-2.13,19.6679
0.17,1.01,0.07,-44.72,-30.4,-15.35,-23.44,-24.61,-24.02,1.39,-0.17,-2.26,19.7416
0.13,1.01,-0.15,-58.71,-22.15,-7.58,-23.44,-25.78,-22.85,1.37,-0.13,-2.26,19.8153
0.21,1.01,-0.07,-82.73,-43.01,-0.42,-24.61,-26.07,-20.8,1.36,-0.2,-2.16,19.889
0.27,1.14,0.05,-84.38,15.19,35.37,-23.14,-27.25,-18.16,1.34,-0.23,-2.06,19.9587
0.54,1.2,-0.33,-110.0,-118.42,41.05,-22.85,-29.88,-16.11,1.08,-0.41,-1.94,20.0365
-0.05,1.39,0.48,-60.46,-15.14,-1.23,-22.56,-31.64,-14.36,1.24,0.03,-2.18,20.1062
0.61,0.88,0.86,19.03,-3.43,-31.48,-23.73,-30.47,-14.06,0.69,-0.46,-2.06,20.1798
0.57,0.46,0.64,178.6,37.08,-55.6,-26.37,-27.25,-17.87,0.49,-0.62,-2.18,20.2536
0.56,0.18,0.61,245.9,27.79,-35.52,-27.25,-24.9,-24.61,0.21,-0.72,-2.23,20.3273
0.44,0.27,0.67,217.4,-78.94,-47.58,-26.66,-23.73,-30.47,0.32,-0.55,-2.26,20.4009
0.63,1.01,-0.71,88.08,-23.38,-31.02,-26.95,-21.68,-34.57,0.82,-0.47,-2.34,20.4748
0.01,1.03,-0.31,-19.03,138.92,-5.46,-26.66,-22.27,-32.81,1.28,-0.01,-2.62,20.5447
-0.08,1.04,0.5,-55.21,249.99,20.52,-27.54,-22.85,-30.18,1.11,0.07,-2.67,20.6181
0.24,1.03,0.2,-69.43,-45.14,-14.63,-27.54,-22.27,-29.0,1.28,-0.23,-2.39,20.692
0.29,1.04,0.02,-52.14,-25.15,-14.89,-28.12,-22.56,-28.42,1.3,-0.27,-2.33,20.7657
0.36,1.0,0.03,-59.59,-70.97,-19.32,-28.12,-21.97,-27.25,1.22,-0.35,-2.3,20.8394
0.13,0.99,0.06,-51.52,-18.46,-4.69,-28.12,-21.39,-25.78,1.43,-0.13,-2.4,20.913
0.26,1.01,-0.07,-59.71,-22.13,-1.92,-27.83,-21.39,-24.02,1.31,-0.25,-2.31,20.9829
0.17,0.98,-0.1,-81.05,-33.62,7.87,-28.12,-22.27,-22.27,1.37,-0.17,-2.31,21.0566
0.24,1.11,0.1,-86.37,15.15,40.31,-28.42,-23.14,-19.92,1.34,-0.21,-2.23,21.1302
0.47,1.25,-0.43,-57.3,-18.88,90.42,-26.95,-24.02,-17.87,1.1,-0.34,-2.18,21.204
-0.01,1.43,0.26,-51.73,-2.75,22.97,-26.66,-24.02,-17.87,1.39,0.0,-2.32,21.2777
0.57,0.89,0.91,10.42,-20.28,-11.44,-26.95,-22.85,-17.87,0.69,-0.42,-2.3,21.3513
0.46,0.45,0.79,176.26,35.21,-54.28,-25.49,-19.92,-21.68,0.46,-0.47,-2.35,21.4214
0.39,0.1,0.72,249.99,76.58,-31.49,-23.14,-18.46,-27.25,0.12,-0.5,-2.28,21.4948
0.45,0.41,0.76,245.83,-40.08,-28.11,-21.39,-16.99,-33.11,0.43,-0.48,-2.32,21.5689
0.66,1.09,-0.63,81.5,-49.12,-47.57,-19.63,-14.65,-34.28,0.87,-0.49,-2.38,21.6423
-0.02,0.73,-0.32,-89.86,95.43,-0.99,-19.92,-15.82,-33.98,1.16,0.02,-2.78,21.7159
0.05,1.26,-0.6,-88.26,31.11,19.34,-19.04,-17.58,-32.23,1.13,-0.04,-2.67,21.7897
0.88,0.75,0.59,-48.29,-5.9,-30.2,-19.63,-17.29,-31.35,0.61,-0.75,-2.16,21.8634
-0.03,1.03,0.02,-58.75,-27.5,-3.91,-19.34,-17.29,-30.47,1.54,0.03,-2.66,21.9331
0.26,0.99,0.08,-20.12,49.81,-6.79,-20.8,-17.87,-29.88,1.3,-0.26,-2.43,22.0068
