Ax,Ay,Az,Gx,Gy,Gz,Mx,My,MZ,Roll,Pitch,Yaw,Time
0.12,1.0,0.08,9.22,-3.52,-2.17,-16.41,-22.27,-17.29,1.43,-0.12,-2.18,0.0003
0.11,1.0,0.06,6.44,5.2,0.82,-16.99,-22.56,-17.29,1.44,-0.11,-2.17,0.0006
0.15,1.0,0.1,5.04,6.48,1.44,-16.41,-21.97,-17.58,1.39,-0.15,-2.17,0.0007
0.16,0.99,0.09,6.83,-5.33,-2.88,-16.7,-21.97,-17.29,1.38,-0.16,-2.16,0.0009
0.15,1.0,0.08,7.9,-11.72,-4.97,-16.99,-23.14,-17.58,1.41,-0.14,-2.15,0.0011
0.15,1.0,0.06,6.6,-12.14,-5.32,-16.41,-21.68,-17.29,1.41,-0.15,-2.17,0.0012
0.14,1.01,0.05,4.73,-9.81,-5.01,-16.99,-22.85,-17.87,1.43,-0.13,-2.17,0.0014
0.15,1.0,0.08,6.26,-12.67,-5.79,-17.29,-21.97,-18.46,1.41,-0.14,-2.2,0.0015
0.12,1.0,0.07,5.99,-16.85,-5.37,-16.7,-22.85,-17.58,1.43,-0.12,-2.17,0.0017
0.1,1.0,0.08,6.23,-10.98,-4.72,-16.7,-22.56,-17.87,1.44,-0.1,-2.19,0.0018
0.13,1.01,0.04,5.78,-13.79,-4.66,-16.99,-22.85,-18.46,1.43,-0.13,-2.18,0.002
0.15,1.0,0.06,7.71,-17.64,-6.14,-17.58,-23.14,-18.75,1.41,-0.14,-2.18,0.0022
0.13,1.02,0.02,8.2,-17.64,-8.25,-17.29,-22.85,-19.34,1.45,-0.12,-2.2,0.0023
0.13,1.02,0.01,9.27,-21.53,-6.96,-17.29,-22.85,-18.16,1.44,-0.13,-2.18,0.0025
0.1,1.0,0.04,5.5,-5.81,-2.77,-16.99,-23.14,-18.75,1.46,-0.1,-2.2,0.0026
0.13,1.01,0.02,4.65,-8.63,-3.75,-17.58,-23.14,-18.75,1.44,-0.13,-2.18,0.0028
0.17,1.01,0.04,3.99,-6.78,-2.62,-17.29,-22.85,-18.46,1.4,-0.16,-2.16,0.0029
0.11,1.02,0.0,3.28,-4.08,-1.73,-16.41,-23.14,-18.46,1.46,-0.11,-2.18,0.0031
0.12,1.03,0.01,2.44,7.09,-9.51,-17.29,-23.14,-18.75,1.45,-0.12,-2.19,0.0032
0.13,1.0,0.05,2.94,-6.45,-3.53,-16.99,-22.85,-18.75,1.44,-0.13,-2.19,0.0034
0.14,1.02,0.02,2.11,1.57,0.08,-17.58,-22.85,-17.87,1.44,-0.13,-2.17,0.0035
0.12,1.02,0.03,0.49,9.82,2.59,-17.29,-22.85,-18.46,1.45,-0.11,-2.19,0.0037
0.16,1.02,0.04,1.04,-1.31,-0.53,-16.7,-22.85,-18.46,1.41,-0.15,-2.17,0.0039
0.14,1.01,0.04,2.09,-1.72,-0.64,-18.46,-22.85,-18.46,1.43,-0.13,-2.18,0.0318
0.12,1.02,0.03,2.44,-1.58,-0.6,-16.99,-23.44,-18.75,1.45,-0.12,-2.18,0.1056
0.13,1.02,0.04,2.33,0.11,0.05,-17.58,-22.27,-18.75,1.44,-0.13,-2.2,0.1793
0.13,1.01,0.04,2.96,1.66,0.44,-17.58,-22.85,-18.46,1.44,-0.13,-2.18,0.253
0.14,1.01,0.05,3.75,-1.9,-1.45,-17.58,-22.56,-18.75,1.42,-0.14,-2.19,0.3267
0.16,1.01,0.04,4.49,-6.83,-2.75,-16.41,-22.56,-18.46,1.41,-0.15,-2.17,0.4005
0.13,1.02,0.03,4.69,-3.88,-1.85,-16.99,-22.85,-18.46,1.44,-0.13,-2.18,0.4703
0.13,1.02,0.02,4.08,-3.95,-2.08,-17.87,-22.85,-18.75,1.45,-0.12,-2.19,0.5439
0.13,1.02,0.02,3.36,-1.8,-1.3,-17.29,-22.56,-19.34,1.44,-0.13,-2.21,0.6178
0.14,1.02,0.03,2.85,-0.23,-0.68,-16.99,-23.14,-18.46,1.43,-0.14,-2.17,0.6913
0.14,1.02,0.02,1.91,1.59,-0.23,-17.58,-22.85,-18.46,1.43,-0.14,-2.18,0.7662
0.1,1.01,0.01,-1.1,10.38,1.55,-16.99,-23.14,-18.16,1.47,-0.1,-2.18,0.835
0.1,1.02,0.0,-3.72,19.05,5.37,-16.99,-22.85,-18.46,1.47,-0.1,-2.2,0.9085
0.13,1.01,0.06,-4.84,28.21,7.84,-17.29,-22.56,-18.46,1.43,-0.13,-2.19,0.9829
0.17,1.01,0.06,-4.63,20.96,5.53,-16.7,-22.56,-17.87,1.4,-0.16,-2.16,1.0559
0.15,1.01,0.07,-4.46,16.98,4.58,-16.7,-22.27,-17.87,1.41,-0.15,-2.17,1.1296
0.1,1.01,0.06,-5.52,20.13,5.69,-16.41,-22.56,-17.29,1.45,-0.1,-2.17,1.2034
0.14,1.0,0.08,-5.61,24.4,7.1,-16.41,-22.56,-17.87,1.41,-0.14,-2.17,1.2731
0.13,1.0,0.09,-5.65,26.44,8.16,-15.53,-21.97,-16.99,1.42,-0.12,-2.17,1.3468
0.12,0.99,0.12,-4.97,28.29,9.54,-16.11,-22.27,-16.7,1.4,-0.12,-2.17,1.4207
0.12,0.98,0.15,-2.63,22.48,7.48,-16.41,-22.56,-16.99,1.38,-0.12,-2.18,1.4942
0.12,0.97,0.18,1.18,8.19,3.34,-15.82,-21.09,-17.29,1.36,-0.12,-2.23,1.5678
0.1,0.99,0.08,2.66,5.35,5.07,-15.53,-21.68,-17.29,1.45,-0.1,-2.2,1.6377
0.1,0.99,0.08,-1.53,40.47,14.36,-16.7,-21.97,-16.11,1.44,-0.1,-2.16,1.7114
0.17,0.99,0.19,-0.09,27.08,9.15,-15.23,-21.09,-16.7,1.32,-0.17,-2.18,1.7852
0.12,0.98,0.15,3.33,12.02,6.43,-15.82,-21.09,-15.23,1.38,-0.12,-2.16,1.8588
0.2,1.0,0.09,0.59,-8.19,-0.87,-16.7,-22.27,-16.11,1.35,-0.2,-2.1,1.9327
0.12,0.99,0.15,-1.45,0.35,-2.15,-15.23,-21.68,-16.11,1.38,-0.12,-2.17,2.0062
0.15,0.99,0.1,0.21,-2.72,0.76,-14.94,-21.39,-15.82,1.39,-0.15,-2.14,2.076
0.16,0.99,0.15,0.0,-5.31,-1.73,-15.53,-21.68,-16.99,1.35,-0.16,-2.17,2.1497
0.13,0.98,0.17,1.66,-9.09,-2.09,-15.53,-21.68,-16.99,1.36,-0.13,-2.2,2.2233
0.12,0.98,0.15,2.57,-2.02,-0.52,-16.11,-21.39,-16.41,1.38,-0.12,-2.19,2.2971
0.16,0.97,0.17,3.66,-6.32,-1.6,-16.11,-21.68,-15.82,1.33,-0.16,-2.14,2.3708
0.15,0.98,0.14,3.61,-3.58,-1.03,-14.94,-21.68,-16.11,1.37,-0.15,-2.15,2.4444
0.14,0.99,0.14,3.21,-2.98,0.28,-15.23,-21.68,-16.41,1.38,-0.14,-2.16,2.5142
0.15,0.98,0.14,2.43,-5.12,-0.42,-15.82,-22.27,-16.41,1.36,-0.15,-2.14,2.5879
0.13,0.98,0.13,2.45,0.83,2.44,-15.23,-21.68,-16.11,1.39,-0.13,-2.16,2.6616
0.17,0.98,0.14,1.66,1.05,2.73,-15.53,-21.97,-16.99,1.35,-0.17,-2.16,2.7355
0.16,0.97,0.16,2.38,-2.51,1.11,-15.23,-21.68,-16.99,1.34,-0.16,-2.17,2.809
0.15,0.98,0.14,1.09,3.01,2.78,-15.23,-21.97,-16.11,1.36,-0.16,-2.14,2.8788
0.17,0.98,0.14,1.41,-2.16,1.54,-15.82,-22.27,-16.7,1.34,-0.18,-2.14,2.9527
0.19,0.97,0.16,2.95,-10.63,-0.63,-15.23,-21.97,-15.23,1.32,-0.19,-2.1,3.0263
0.17,0.98,0.1,2.47,-14.33,0.21,-14.94,-21.68,-16.41,1.37,-0.17,-2.13,3.0999
0.12,1.0,0.09,-0.57,-3.1,6.84,-14.65,-21.68,-15.53,1.42,-0.12,-2.14,3.1736
0.14,0.98,0.1,-0.9,-2.4,8.93,-14.94,-22.27,-16.11,1.4,-0.14,-2.13,3.2473
-0.04,0.99,-0.11,-7.67,7.16,14.41,-14.36,-22.56,-15.53,1.45,0.04,-2.25,3.3172
0.03,1.09,-0.27,-6.77,15.44,39.54,-13.77,-22.56,-13.77,1.33,-0.03,-2.18,3.3909
-0.26,2.0,-0.17,1.75,94.14,13.94,-13.77,-23.14,-12.3,1.42,0.13,-2.25,3.4645
0.28,1.44,0.5,-12.89,16.59,-29.82,-14.36,-24.02,-11.43,1.2,-0.18,-2.0,3.5383
0.18,1.3,0.58,54.17,36.67,-75.42,-15.82,-22.56,-10.25,1.13,-0.13,-2.08,3.6119
0.16,0.96,0.49,113.57,67.45,-66.48,-19.04,-20.8,-10.25,1.08,-0.15,-2.17,3.6858
0.22,0.55,0.19,124.08,53.77,-56.93,-21.09,-18.46,-12.3,1.09,-0.36,-2.15,3.7594
0.19,0.04,0.05,86.39,47.48,-28.76,-22.85,-16.99,-14.36,0.2,-1.25,-2.39,3.8293
0.19,0.08,0.01,60.54,-8.26,-1.13,-22.27,-17.29,-15.23,0.4,-1.17,-2.25,3.903
0.11,0.51,0.13,31.23,-55.02,23.8,-23.14,-18.16,-15.82,1.25,-0.2,-2.3,3.9765
-0.08,1.23,-0.03,-155.28,-108.89,-26.6,-21.39,-20.21,-15.53,1.5,0.07,-2.34,4.0506
-0.17,1.25,-0.52,-108.04,4.84,27.1,-20.8,-21.39,-13.18,1.16,0.12,-2.43,4.124
-0.88,2.0,-0.9,-76.5,37.74,12.6,-18.75,-21.97,-12.6,1.01,0.38,-2.61,4.1976
0.18,0.58,0.29,-44.61,10.59,21.26,-19.34,-22.27,-12.01,1.04,-0.28,-2.1,4.2677
-0.09,0.97,0.07,-35.26,47.18,21.26,-18.46,-21.39,-10.84,1.45,0.1,-2.21,4.3413
0.34,1.04,0.06,-24.67,-74.17,-16.63,-18.16,-22.27,-11.43,1.25,-0.32,-1.94,4.4151
-0.12,1.0,0.04,-32.91,-97.46,-14.68,-16.99,-23.73,-11.72,1.45,0.12,-2.21,4.4887
-0.16,0.98,0.08,-39.66,-42.88,9.1,-16.7,-24.61,-11.43,1.39,0.16,-2.24,4.5623
-0.06,0.93,0.11,-43.59,-26.7,21.68,-15.23,-25.49,-11.13,1.43,0.06,-2.11,4.636
0.23,0.97,0.34,-41.11,-16.16,26.68,-15.23,-26.37,-10.25,1.17,-0.22,-1.91,4.7097
0.06,1.02,0.14,-56.83,-45.15,25.88,-13.77,-26.95,-10.25,1.42,-0.06,-1.93,4.7796
-0.08,0.98,-0.09,-72.94,-48.81,59.07,-12.6,-28.42,-9.08,1.45,0.08,-2.0,4.8534
-0.23,1.51,-0.83,-3.23,46.39,98.95,-12.3,-28.42,-6.74,1.05,0.13,-2.08,4.9269
-0.22,1.69,0.97,-46.18,38.77,21.87,-12.6,-28.12,-5.57,1.04,0.11,-2.04,5.0007
0.44,1.46,1.17,21.7,91.6,-35.86,-14.65,-25.49,-4.1,0.86,-0.23,-1.88,5.0744
0.56,0.89,1.3,127.33,80.8,-43.98,-17.58,-21.39,-5.57,0.56,-0.34,-2.13,5.148
0.33,0.35,0.85,223.52,52.86,-85.08,-20.51,-17.58,-9.08,0.37,-0.35,-2.37,5.2179
0.18,-0.14,0.43,200.14,77.23,-64.06,-23.73,-15.23,-13.48,-0.29,-0.37,-2.4,5.2915
0.44,-0.39,0.29,128.65,-1.85,-24.09,-24.02,-13.48,-16.41,-0.64,-0.74,-2.26,5.3656
0.2,0.23,0.46,32.33,-234.45,45.51,-25.49,-13.18,-17.58,0.42,-0.37,-2.56,5.4389
-0.07,1.67,-0.8,8.06,-25.02,-45.38,-26.37,-12.89,-20.21,1.12,0.04,-2.76,5.5126
-0.75,0.89,-0.81,-129.53,-116.34,-9.83,-26.66,-13.48,-18.46,0.68,0.56,-3.09,5.5864
0.57,1.66,-0.99,-63.49,-103.7,22.35,-25.2,-14.94,-16.11,0.97,-0.28,-2.47,5.6601
-0.11,0.54,0.9,-46.45,92.51,55.27,-24.61,-14.94,-13.77,0.53,0.11,-2.71,5.7298
-0.1,0.99,0.1,-47.58,31.25,33.33,-24.61,-14.65,-14.65,1.43,0.1,-2.54,5.8036
0.16,0.98,0.07,-33.91,-68.33,-3.41,-23.44,-16.11,-13.18,1.39,-0.16,-2.24,5.8773
-0.09,0.97,0.02,-40.42,-57.81,9.12,-23.14,-17.58,-12.3,1.47,0.1,-2.35,5.9512
-0.2,0.93,0.06,-44.7,-30.23,26.89,-22.27,-17.29,-11.43,1.36,0.21,-2.49,6.0246
0.33,0.91,0.3,-41.43,-50.05,19.51,-21.68,-18.75,-10.25,1.12,-0.33,-2.12,6.0983
0.14,1.01,0.29,-44.5,-73.48,13.24,-19.92,-19.63,-9.96,1.26,-0.13,-2.13,6.1684
-0.01,1.03,0.07,-50.37,-89.16,41.92,-18.75,-21.97,-9.08,1.5,0.01,-2.02,6.2419
-0.1,1.12,-0.07,-46.55,-30.6,74.67,-16.7,-23.73,-7.91,1.46,0.09,-2.04,6.3158
-0.68,1.92,-1.16,2.84,-163.06,47.31,-15.23,-24.61,-9.96,0.96,0.3,-2.4,6.3892
0.41,1.32,1.31,-11.38,249.99,-12.64,-12.01,-21.68,-8.2,0.77,-0.22,-2.02,6.463
0.44,1.06,1.25,60.09,127.13,-31.24,-10.55,-20.21,-6.45,0.67,-0.26,-1.97,6.5368
0.55,0.57,1.11,189.17,116.03,-80.46,-13.77,-18.75,-4.98,0.43,-0.42,-2.1,6.6103
0.29,0.17,0.65,229.77,100.58,-82.31,-18.16,-15.53,-7.62,0.24,-0.4,-2.37,6.6802
0.41,-0.29,0.33,170.32,68.61,-56.69,-21.09,-13.48,-9.38,-0.51,-0.75,-2.45,6.754
0.42,-0.04,0.22,101.85,-40.78,-39.38,-22.85,-13.77,-10.84,-0.09,-1.08,-2.54,6.8277
0.03,0.66,0.03,19.94,-117.74,-41.82,-22.85,-15.82,-10.55,1.51,-0.04,-2.17,6.9015
-0.27,1.51,-0.55,-82.57,-45.88,15.77,-21.97,-19.04,-7.32,1.19,0.17,-2.36,6.9751
-0.5,2.0,0.56,-87.51,247.03,110.28,-19.63,-19.04,-5.86,1.21,0.24,-2.33,7.0493
-0.28,0.78,-0.1,-61.58,46.98,54.16,-19.34,-18.46,-4.69,1.2,0.35,-2.39,7.1185
0.17,0.88,0.39,-32.27,-18.23,19.33,-18.16,-19.04,-4.69,1.12,-0.17,-2.01,7.1923
-0.06,1.01,-0.01,-42.73,1.72,26.11,-17.58,-20.21,-3.22,1.51,0.06,-1.84,7.2659
0.06,0.96,0.18,-29.99,-102.61,-11.36,-16.99,-21.68,-2.93,1.38,-0.06,-1.79,7.3397
-0.12,0.99,0.05,-36.1,-54.17,15.46,-15.82,-23.73,-2.05,1.44,0.12,-1.86,7.4133
0.06,0.91,0.23,-44.98,-30.29,25.48,-14.94,-25.2,-0.88,1.31,-0.07,-1.69,7.487
0.22,0.93,0.24,-40.01,-66.44,17.88,-13.77,-26.95,-0.29,1.23,-0.23,-1.54,7.5568
0.12,1.1,0.17,-46.7,-91.14,22.84,-12.01,-29.59,0.29,1.38,-0.11,-1.53,7.6305
-0.09,0.99,0.11,-47.36,-49.75,73.18,-11.72,-31.64,1.76,1.43,0.09,-1.65,7.7042
-0.18,1.33,-1.02,57.37,-94.25,-14.89,-12.89,-33.98,3.52,0.91,0.11,-1.8,7.7779
0.17,1.78,1.07,-4.2,202.6,22.72,-15.82,-28.42,6.15,1.02,-0.08,-1.61,7.8517
0.54,1.34,1.2,6.91,73.67,-43.11,-18.46,-22.27,4.98,0.79,-0.29,-1.82,7.9213
0.57,0.77,1.08,130.82,91.09,-69.76,-21.39,-16.7,-0.29,0.56,-0.41,-2.33,7.9992
0.37,0.37,0.64,219.1,95.4,-88.23,-24.61,-11.13,-7.62,0.47,-0.46,-2.61,8.069
0.33,-0.13,0.41,201.44,82.51,-72.09,-26.37,-8.2,-14.06,-0.24,-0.65,-2.58,8.1425
0.58,-0.22,0.19,157.39,4.58,-45.87,-27.25,-6.45,-19.34,-0.35,-1.11,-2.46,8.2164
0.05,0.43,0.51,-68.41,-61.04,168.55,-27.83,-6.45,-20.51,0.7,-0.07,-2.92,8.2899
0.16,1.79,-0.56,6.89,14.71,-26.14,-27.83,-5.27,-19.63,1.26,-0.08,-2.89,8.3636
-0.52,1.04,-0.6,-137.59,-141.48,157.03,-27.25,-6.45,-16.7,0.92,0.41,3.12,8.4374
1.35,2.0,-0.4,-128.43,140.05,78.56,-24.32,-7.03,-14.36,0.96,-0.58,-2.55,8.511
-0.08,0.92,0.72,-53.43,12.44,46.17,-24.32,-7.32,-13.48,0.91,0.07,-2.9,8.5808
-0.27,0.94,0.16,-32.71,0.6,19.9,-24.02,-8.79,-12.3,1.25,0.28,-2.9,8.6545
0.0,0.89,0.23,-49.9,-100.69,-47.5,-22.27,-8.79,-11.13,1.32,-0.0,-2.65,8.7283
-0.26,0.77,0.33,-44.82,2.64,35.69,-21.39,-9.08,-10.25,1.07,0.31,-2.89,8.8019
0.07,0.76,0.36,-37.22,-26.56,17.01,-21.68,-9.67,-10.25,1.12,-0.08,-2.61,8.8756
0.11,0.77,0.41,-17.58,-35.99,7.9,-19.92,-10.55,-9.96,1.06,-0.13,-2.54,8.9454
0.18,0.78,0.45,-32.66,-71.48,-3.78,-19.63,-11.13,-8.79,1.01,-0.19,-2.47,9.0192
-0.09,0.76,0.42,-36.93,-64.39,19.97,-17.87,-13.18,-7.91,1.06,0.11,-2.51,9.0928
0.05,0.93,0.4,3.62,-35.45,69.38,-18.16,-14.36,-8.2,1.16,-0.05,-2.34,9.1666
0.33,1.23,0.05,135.19,-101.45,34.29,-19.34,-16.11,-10.25,1.31,-0.26,-2.1,9.2402
0.24,1.02,0.63,70.72,-20.81,-20.6,-17.29,-16.41,-11.13,0.99,-0.2,-2.29,9.3139
0.58,0.76,0.9,-11.05,73.18,-39.71,-15.82,-15.23,-10.84,0.62,-0.46,-2.24,9.3876
0.56,0.5,0.7,48.07,63.22,-48.8,-14.36,-14.36,-11.43,0.51,-0.58,-2.2,9.4574
0.48,0.28,0.63,98.1,69.95,-38.41,-15.82,-14.06,-13.48,0.33,-0.61,-2.26,9.5311
0.69,0.38,0.65,32.63,23.75,-23.74,-14.94,-13.77,-15.23,0.38,-0.74,-2.19,9.6049
0.52,0.89,0.72,-98.2,134.79,-9.45,-14.94,-11.72,-15.53,0.79,-0.43,-2.36,9.6785
0.87,1.05,-0.1,-59.97,61.03,-3.2,-14.06,-11.72,-15.53,0.88,-0.69,-2.15,9.7523
-0.02,0.71,0.13,-27.57,-38.87,-24.08,-13.18,-11.43,-15.53,1.39,0.03,-2.59,9.826
-0.44,0.95,0.16,-24.13,33.2,18.88,-13.77,-11.72,-15.23,1.11,0.43,-2.95,9.8957
0.08,0.82,0.46,-13.4,28.76,23.35,-13.77,-11.72,-15.53,1.05,-0.08,-2.56,9.9696
0.12,0.82,0.41,1.92,-8.96,-8.79,-14.06,-11.72,-14.94,1.09,-0.13,-2.5,10.0431
0.01,0.81,0.38,-10.49,-1.85,-2.43,-13.48,-11.72,-15.23,1.14,-0.01,-2.59,10.1174
0.0,0.82,0.4,-0.85,-6.93,-5.83,-13.18,-11.43,-15.23,1.12,-0.0,-2.61,10.1905
0.03,0.81,0.42,2.37,-3.46,-3.61,-12.89,-11.43,-14.94,1.09,-0.03,-2.58,10.2603
-0.01,0.83,0.4,-3.11,4.16,4.37,-13.18,-11.43,-14.65,1.12,0.02,-2.61,10.334
0.1,0.8,0.44,-3.14,4.78,5.16,-13.18,-11.43,-15.53,1.06,-0.1,-2.54,10.4077
0.03,0.81,0.41,-0.26,-3.72,-2.71,-12.89,-11.72,-14.94,1.1,-0.03,-2.57,10.4814
0.07,0.81,0.45,0.4,-3.07,-2.17,-12.89,-11.72,-14.94,1.06,-0.07,-2.54,10.5551
0.01,0.81,0.43,0.8,1.91,0.15,-12.3,-11.72,-15.23,1.08,-0.01,-2.59,10.6249
0.02,0.81,0.43,-0.29,2.05,0.51,-12.89,-11.72,-14.94,1.08,-0.02,-2.58,10.6986
0.05,0.79,0.44,1.26,2.7,-0.27,-13.48,-12.01,-15.23,1.06,-0.05,-2.56,10.7724
0.03,0.8,0.44,1.27,1.83,0.72,-12.89,-11.43,-15.53,1.06,-0.03,-2.6,10.8459
0.03,0.79,0.44,2.88,0.4,0.16,-12.89,-11.43,-15.23,1.06,-0.04,-2.58,10.9197
0.01,0.79,0.43,2.92,3.41,2.6,-13.48,-11.72,-15.23,1.08,-0.01,-2.6,10.9895
0.02,0.8,0.42,2.24,3.92,3.49,-13.18,-11.43,-15.23,1.09,-0.02,-2.6,11.0631
0.05,0.76,0.47,1.01,2.09,1.8,-12.89,-11.43,-14.65,1.01,-0.06,-2.56,11.137
0.0,0.8,0.42,1.82,-1.3,-0.38,-12.6,-11.13,-15.53,1.08,-0.0,-2.62,11.2106
0.02,0.78,0.45,3.9,-2.45,0.19,-12.3,-11.72,-14.36,1.05,-0.02,-2.56,11.2843
0.01,0.81,0.42,6.12,-1.07,-0.79,-12.6,-11.72,-15.23,1.09,-0.01,-2.59,11.3579
-0.04,0.84,0.39,14.1,2.75,0.25,-13.48,-11.72,-15.23,1.13,0.04,-2.63,11.4277
0.01,0.83,0.4,25.12,-16.41,-14.04,-12.6,-12.3,-14.65,1.12,-0.01,-2.55,11.5017
0.19,0.76,0.53,25.16,-26.01,-25.34,-13.77,-12.6,-14.94,0.94,-0.21,-2.43,11.5753
0.01,0.86,0.4,30.39,-32.97,-34.13,-13.18,-12.3,-13.48,1.13,-0.01,-2.53,11.6489
0.42,0.82,0.47,21.26,-96.87,-68.83,-13.48,-13.48,-13.18,0.91,-0.42,-2.22,11.7226
0.52,0.82,0.46,40.08,-250.0,-202.96,-13.18,-16.11,-11.13,0.87,-0.5,-2.05,11.7963
0.15,0.53,0.47,-38.8,-206.56,-167.37,-12.89,-18.75,-9.08,0.82,-0.21,-2.12,11.8701
-0.92,0.67,0.59,-32.42,36.08,1.11,-13.48,-19.63,-9.38,0.55,0.8,-2.84,11.9398
0.31,0.82,0.3,-3.81,27.69,-5.46,-13.77,-19.92,-9.96,1.09,-0.34,-1.95,12.0135
-0.15,0.84,0.58,12.57,-84.67,-52.14,-14.06,-21.09,-9.38,0.95,0.15,-2.32,12.0872
0.12,0.9,0.29,34.18,-85.68,-45.35,-14.06,-21.39,-9.67,1.24,-0.12,-2.03,12.161
0.17,0.95,0.29,22.75,-111.21,-63.37,-14.65,-22.27,-9.67,1.23,-0.16,-1.99,12.2347
-0.11,0.9,0.15,31.76,-92.43,-35.63,-14.36,-23.73,-9.96,1.37,0.12,-2.17,12.3082
0.05,0.88,0.25,26.33,-21.87,4.13,-15.23,-24.9,-10.84,1.29,-0.05,-2.05,12.378
0.38,0.87,0.41,13.64,-93.86,-27.31,-16.7,-25.78,-11.13,1.0,-0.37,-1.91,12.452
0.15,0.82,0.41,10.73,-40.75,-7.56,-15.82,-25.49,-11.72,1.08,-0.16,-2.05,12.5255
0.23,0.99,0.16,7.14,-64.84,-24.49,-15.82,-26.66,-11.43,1.29,-0.22,-1.89,12.5993
0.22,0.93,0.08,-0.4,-43.17,-15.37,-16.11,-27.25,-12.6,1.33,-0.23,-1.89,12.6729
0.26,1.09,0.01,36.84,-14.78,-22.65,-16.99,-26.95,-12.3,1.34,-0.23,-1.89,12.7466
0.63,1.17,-0.02,57.02,-210.94,-89.34,-19.34,-28.12,-13.77,1.07,-0.5,-1.82,12.8204
0.35,1.37,-0.0,-21.19,-185.36,-57.21,-21.39,-29.0,-15.82,1.32,-0.25,-1.96,12.8941
0.27,1.5,0.14,-65.84,-8.51,-50.72,-22.85,-28.12,-14.06,1.37,-0.18,-1.98,12.9638
0.17,1.31,0.35,-40.75,19.26,-48.06,-24.02,-26.95,-13.18,1.28,-0.13,-2.09,13.0376
0.07,0.86,0.27,49.95,40.07,-25.57,-25.2,-25.49,-14.06,1.26,-0.07,-2.2,13.1112
0.16,0.41,0.15,138.95,8.82,-13.99,-26.95,-25.2,-18.46,1.08,-0.36,-2.16,13.185
0.21,-0.25,-0.02,129.8,3.8,-8.5,-28.42,-24.02,-22.56,-0.87,-0.7,-2.05,13.2587
0.34,-0.35,0.2,89.48,-81.61,22.14,-29.3,-24.32,-24.9,-0.72,-0.71,-2.09,13.3325
-0.05,0.67,0.17,-250.0,92.04,57.06,-28.12,-27.54,-18.46,1.32,0.07,-2.36,13.4022
0.48,1.69,0.01,-140.52,18.71,26.98,-25.49,-31.93,-13.18,1.3,-0.27,-1.88,13.4758
0.02,2.0,0.39,-60.78,-174.05,-194.69,-25.78,-30.47,-13.48,1.38,-0.01,-2.1,13.5498
0.24,0.6,0.83,3.14,-163.03,-117.26,-25.78,-29.59,-9.96,0.61,-0.23,-2.2,13.6232
-0.15,0.66,0.63,-60.65,63.67,74.97,-24.61,-29.88,-9.38,0.8,0.16,-2.34,13.6969
0.27,0.95,0.22,-27.21,-45.58,-44.41,-24.61,-31.05,-8.5,1.22,-0.27,-1.83,13.7707
0.24,0.99,0.25,-48.23,-64.59,-49.34,-25.2,-30.47,-8.5,1.23,-0.23,-1.86,13.8405
0.05,0.71,0.42,-43.58,12.79,21.55,-25.2,-31.05,-7.32,1.04,-0.05,-2.08,13.9141
0.46,0.61,0.56,-32.93,-8.09,2.72,-24.9,-31.35,-6.74,0.7,-0.5,-1.98,13.9879
0.28,0.77,0.46,-32.93,-45.4,-18.65,-24.61,-32.23,-5.27,0.96,-0.3,-1.88,14.0616
0.26,1.1,0.17,-29.94,-84.68,-21.03,-24.61,-32.81,-5.27,1.29,-0.23,-1.7,14.1354
0.06,1.08,0.27,14.16,-35.72,101.94,-25.49,-33.4,-5.27,1.32,-0.06,-1.85,14.209
0.61,2.0,-0.84,111.46,-250.0,-188.49,-31.93,-34.28,-11.72,1.09,-0.27,-2.0,14.2832
0.05,1.52,0.9,29.84,-22.14,-10.98,-33.98,-29.88,-11.13,1.03,-0.03,-2.28,14.3527
0.33,0.93,1.62,115.26,48.67,-38.12,-33.4,-25.49,-16.99,0.51,-0.17,-2.47,14.4262
0.2,0.28,1.22,234.16,77.64,-35.55,-31.05,-22.85,-24.61,0.22,-0.16,-2.49,14.4999
0.25,-0.46,0.38,249.99,68.34,-27.33,-28.71,-21.68,-31.05,-0.79,-0.4,-1.76,14.5736
0.43,-0.87,0.01,135.41,3.55,-5.79,-25.2,-21.68,-35.16,-1.11,-0.46,-1.33,14.6473
0.22,-0.29,0.51,68.95,-57.67,31.65,-24.32,-20.21,-38.96,-0.48,-0.36,-1.81,14.721
0.41,1.24,0.53,-118.49,-61.71,72.86,-25.78,-20.8,-40.14,1.08,-0.3,-2.48,14.7947
-0.75,2.0,-2.0,-42.16,249.99,108.61,-31.05,-23.73,-33.98,0.75,0.26,-2.86,14.8645
-1.99,2.0,-1.24,217.12,76.76,66.57,-31.35,-23.44,-32.23,0.71,0.7,3.08,14.9382
0.02,0.87,0.27,-15.08,16.22,-29.08,-31.64,-24.9,-28.42,1.27,-0.02,-2.53,15.0119
-0.05,0.69,0.76,-91.49,63.05,64.49,-30.76,-23.73,-26.95,0.73,0.04,-2.65,15.0858
0.12,0.85,0.25,-45.64,15.44,14.31,-31.05,-23.73,-26.37,1.25,-0.14,-2.43,15.1593
0.2,0.87,0.3,-45.75,-60.12,-45.76,-31.35,-21.97,-26.37,1.18,-0.21,-2.43,15.2331
0.07,0.88,0.31,-47.49,-71.3,-44.56,-31.05,-20.21,-25.2,1.23,-0.07,-2.55,15.3067
0.21,0.6,0.52,-46.46,3.38,11.73,-30.76,-21.09,-24.02,0.82,-0.26,-2.48,15.3765
0.22,0.65,0.57,-30.99,-17.33,-1.7,-29.59,-20.8,-22.85,0.82,-0.25,-2.47,15.4503
0.18,0.77,0.51,-41.4,-16.93,24.03,-29.59,-21.09,-21.39,0.96,-0.2,-2.46,15.5239
0.36,0.95,0.32,-92.64,-115.14,-51.49,-27.54,-21.68,-21.09,1.1,-0.34,-2.28,15.5977
-0.15,1.5,0.47,9.44,27.92,-45.17,-25.49,-22.56,-21.39,1.25,0.09,-2.55,15.6713
0.74,2.0,-0.48,80.98,-250.0,-99.27,-23.14,-23.73,-21.68,1.16,-0.34,-2.18,15.7451
0.58,1.65,1.42,28.96,-65.79,-12.7,-21.97,-23.14,-16.41,0.82,-0.26,-2.27,15.8148
0.32,0.95,1.77,92.97,71.33,-34.86,-22.85,-22.56,-15.53,0.49,-0.16,-2.38,15.8885
0.29,0.34,1.31,249.99,84.63,-51.86,-25.49,-20.21,-20.51,0.25,-0.21,-2.44,15.9623
0.34,-0.39,0.47,249.99,42.48,-47.65,-25.2,-18.75,-26.37,-0.59,-0.51,-1.99,16.036
0.45,-0.9,0.14,152.21,34.1,-6.14,-23.73,-17.58,-29.88,-1.09,-0.46,-1.37,16.1097
0.26,-0.22,0.23,102.75,-87.62,42.34,-23.44,-16.99,-32.52,-0.56,-0.68,-1.91,16.1838
0.25,0.99,0.6,-250.0,223.45,162.45,-26.95,-22.27,-26.66,0.99,-0.21,-2.44,16.2571
0.88,1.87,0.06,-110.16,22.01,-8.77,-27.25,-25.49,-21.97,1.13,-0.44,-2.12,16.3268
-0.54,2.0,-2.0,84.54,-78.18,-250.0,-28.12,-21.97,-19.63,0.77,0.19,-2.68,16.4007
0.18,0.43,0.54,59.17,134.5,194.55,-27.83,-23.73,-18.46,0.65,-0.25,-2.39,16.4742
0.41,0.79,0.1,48.33,-37.41,-15.02,-27.54,-24.61,-16.99,1.08,-0.48,-2.07,16.548
0.32,0.92,0.27,-17.92,-22.71,-28.86,-27.54,-24.61,-15.82,1.14,-0.32,-2.14,16.6218
0.33,0.85,0.27,-57.36,-68.7,-58.17,-26.66,-24.02,-14.36,1.11,-0.35,-2.11,16.6954
-0.03,0.66,0.55,-60.67,36.65,48.41,-25.78,-24.02,-13.48,0.87,0.03,-2.43,16.7652
0.31,0.68,0.44,-43.17,12.85,17.22,-26.07,-22.85,-12.3,0.9,-0.37,-2.2,16.8389
0.25,0.7,0.58,-28.69,4.96,11.26,-25.2,-24.02,-11.72,0.84,-0.27,-2.24,16.9126
0.4,0.84,0.35,-33.26,-45.27,-11.33,-25.49,-23.73,-10.84,1.01,-0.41,-2.06,16.9864
0.06,1.03,0.19,-15.94,-16.32,32.89,-26.07,-25.2,-9.96,1.38,-0.05,-2.05,17.06
0.44,1.73,-0.28,158.16,-226.52,218.39,-29.0,-22.85,-13.48,1.28,-0.25,-2.12,17.1338
0.04,1.77,1.67,-69.21,249.99,-52.45,-26.95,-19.92,-14.65,0.81,-0.01,-2.53,17.2075
0.53,1.22,1.41,32.28,88.36,-34.68,-26.37,-17.29,-16.7,0.68,-0.28,-2.49,17.2773
0.35,0.57,1.18,185.68,96.38,-49.52,-25.78,-16.11,-20.8,0.43,-0.26,-2.53,17.351
0.45,-0.25,0.62,249.99,60.6,-46.7,-25.2,-15.82,-27.83,-0.31,-0.59,-2.17,17.4248
0.36,-0.9,0.27,173.04,33.94,-12.21,-22.85,-14.65,-30.76,-1.11,-0.37,-1.16,17.4984
0.4,-0.44,0.42,120.77,-75.17,41.14,-21.39,-14.94,-33.69,-0.65,-0.58,-1.73,17.5721
0.38,1.08,0.63,-250.0,88.97,26.51,-23.44,-14.94,-30.18,0.98,-0.3,-2.54,17.6458
-0.02,1.78,-0.08,-63.61,14.59,43.06,-24.9,-16.99,-28.42,1.53,0.01,-2.63,17.7196
2.0,1.47,0.11,223.49,13.45,-54.48,-24.9,-15.23,-28.12,0.63,-0.94,-2.19,17.7894
0.8,0.74,-0.24,-49.98,249.99,92.4,-25.2,-17.29,-26.37,0.73,-0.8,-2.21,17.8629
-0.43,0.32,0.31,-82.51,153.54,93.1,-25.2,-16.99,-25.2,0.54,0.78,2.99,17.9366
0.2,0.75,0.38,-16.19,-7.54,-3.08,-24.9,-17.87,-24.61,1.05,-0.23,-2.48,18.0103
0.51,1.0,0.18,-59.43,-129.17,-124.33,-25.2,-16.11,-23.14,1.07,-0.46,-2.34,18.0842
0.14,0.83,0.4,-37.38,-49.48,-29.79,-24.61,-16.11,-22.56,1.1,-0.15,-2.55,18.1578
0.28,0.63,0.47,-34.41,59.56,59.27,-24.32,-16.7,-21.68,0.85,-0.34,-2.44,18.2275
0.31,0.5,0.61,-48.08,23.22,34.19,-24.02,-17.87,-21.68,0.63,-0.38,-2.41,18.3012
0.17,0.74,0.41,-43.11,-34.68,-10.15,-23.44,-17.58,-20.21,1.03,-0.19,-2.46,18.375
0.31,0.75,0.35,-43.38,-123.9,-73.47,-22.85,-17.87,-19.04,1.01,-0.36,-2.32,18.4487
-0.06,0.9,0.99,-52.98,86.98,17.47,-21.97,-17.87,-18.75,0.74,0.05,-2.62,18.5223
0.53,1.1,0.12,146.73,117.68,-10.57,-21.39,-19.04,-20.8,1.11,-0.45,-2.2,18.5961
0.63,1.14,0.21,50.97,-230.32,-82.82,-20.21,-16.99,-22.27,1.04,-0.5,-2.24,18.6698
0.34,0.65,0.65,-48.87,-18.84,-64.19,-18.46,-16.7,-19.92,0.73,-0.36,-2.35,18.7436
0.35,0.5,1.05,12.69,87.51,-52.35,-18.16,-16.99,-17.58,0.42,-0.29,-2.36,18.8132
0.41,0.2,0.65,115.52,68.34,-42.12,-19.63,-16.41,-16.41,0.26,-0.54,-2.31,18.887
0.37,-0.0,0.46,149.33,38.38,-18.14,-20.51,-14.94,-17.58,-0.01,-0.68,-2.31,18.9607
0.32,0.11,0.48,141.12,49.46,22.31,-21.97,-15.53,-19.92,0.19,-0.58,-2.34,19.0344
0.46,0.42,1.51,-5.9,-97.23,108.59,-20.8,-19.34,-20.51,0.26,-0.29,-2.34,19.1081
0.69,1.52,0.04,-250.0,45.09,228.25,-19.63,-18.46,-19.63,1.14,-0.43,-2.18,19.1821
1.31,1.26,-0.02,-34.73,-74.33,84.41,-19.63,-18.75,-19.04,0.77,-0.8,-2.05,19.2555
-0.03,1.06,0.1,-30.92,28.81,25.59,-19.04,-18.16,-18.46,1.47,0.03,-2.43,19.3254
0.25,0.77,0.51,-11.12,44.55,46.02,-19.34,-19.63,-19.04,0.93,-0.26,-2.32,19.399
0.38,0.78,0.4,-17.46,1.5,-0.96,-18.46,-19.63,-16.99,0.95,-0.41,-2.17,19.4727
0.27,0.81,0.4,-11.97,12.54,5.13,-17.29,-18.46,-16.7,1.04,-0.29,-2.25,19.5464
0.3,0.69,0.5,-5.18,23.22,15.89,-17.87,-18.75,-16.11,0.87,-0.34,-2.25,19.6201
0.26,0.65,0.6,-9.1,33.08,28.51,-17.87,-18.16,-16.7,0.78,-0.28,-2.32,19.6899
0.18,0.93,0.29,-4.26,1.53,1.16,-18.16,-19.34,-16.99,1.22,-0.18,-2.27,19.7635
0.31,0.77,0.44,-12.2,-21.26,-13.36,-16.99,-19.34,-16.99,0.96,-0.33,-2.21,19.8374
0.1,0.76,0.54,-1.27,25.56,21.61,-17.29,-19.04,-16.41,0.94,-0.11,-2.38,19.911
0.28,0.77,0.49,-2.44,2.08,11.62,-18.16,-18.75,-16.41,0.94,-0.3,-2.26,19.9847
0.28,0.72,0.5,-4.55,-18.57,-6.68,-17.58,-19.34,-16.11,0.9,-0.31,-2.24,20.0584
0.29,0.74,0.48,-2.04,-3.2,3.67,-17.58,-19.92,-15.82,0.93,-0.31,-2.21,20.1282
0.34,0.69,0.52,0.62,-2.89,3.3,-17.29,-19.92,-16.11,0.84,-0.37,-2.19,20.2019
0.33,0.74,0.47,1.94,-11.73,-3.78,-16.7,-19.63,-14.65,0.91,-0.36,-2.15,20.2757
0.32,0.74,0.46,3.09,-5.22,0.37,-17.58,-19.92,-16.11,0.92,-0.36,-2.18,20.3493
0.33,0.76,0.44,1.53,-7.35,-1.97,-17.29,-20.21,-16.41,0.94,-0.36,-2.17,20.423
0.34,0.74,0.46,-1.05,-3.27,1.56,-17.29,-20.8,-16.11,0.91,-0.37,-2.15,20.4928
0.36,0.72,0.49,-0.72,-2.63,1.81,-17.29,-20.21,-14.94,0.87,-0.39,-2.15,20.5665
