Ax,Ay,Az,Gx,Gy,Gz,Mx,My,MZ,Roll,Pitch,Yaw,Time
0.19,-0.88,-0.33,15.21,9.01,-5.32,-11.72,-26.37,-28.12,-1.17,-0.2,-1.1,0.0016
0.06,-0.94,-0.33,-2.97,2.73,5.33,-12.3,-26.95,-26.95,-1.23,-0.06,-0.97,0.0022
0.18,-0.93,-0.25,-3.23,4.31,3.53,-12.3,-27.54,-25.49,-1.25,-0.18,-1.12,0.0028
0.12,-0.89,-0.37,9.49,-0.34,1.43,-13.18,-28.12,-25.49,-1.16,-0.13,-1.13,0.0034
0.08,-0.95,-0.34,-0.95,4.71,-12.86,-12.89,-28.12,-24.32,-1.22,-0.08,-1.07,0.004
0.17,-0.94,-0.37,-2.84,3.49,1.78,-12.6,-28.42,-23.14,-1.16,-0.17,-1.23,0.0046
-0.03,-1.18,-0.36,-14.65,23.28,-8.98,-12.89,-28.42,-21.68,-1.27,0.02,-1.01,0.0052
0.23,-0.91,-0.23,2.77,37.42,-14.35,-13.77,-29.0,-20.21,-1.23,-0.24,-1.35,0.0058
0.07,-0.84,-0.43,6.17,54.91,5.36,-13.18,-28.71,-17.58,-1.1,-0.07,-1.32,0.0064
0.02,-0.94,-0.43,-20.54,90.7,26.23,-12.89,-28.12,-14.65,-1.14,-0.02,-1.31,0.007
0.16,-0.89,-0.47,0.12,141.65,23.04,-11.72,-26.07,-11.72,-1.07,-0.16,-1.54,0.0076
-0.12,-1.0,-0.5,21.45,162.36,-1.79,-12.01,-24.61,-7.91,-1.09,0.11,-1.41,0.0082
-0.01,-0.8,-0.49,-18.65,199.42,28.25,-10.84,-21.68,-5.86,-1.02,0.01,-1.59,0.0087
-0.26,-1.0,-0.55,-30.96,223.01,55.22,-9.67,-17.29,-4.1,-1.03,0.22,-1.46,0.0093
-0.23,-0.83,-0.45,-11.45,211.43,58.61,-8.79,-12.6,-2.64,-1.02,0.24,-1.56,0.0098
-0.12,-0.92,-0.55,-3.4,154.34,66.65,-8.79,-9.67,-2.34,-1.02,0.11,-1.75,0.0103
-0.45,-1.25,-0.54,-38.55,208.6,52.28,-7.32,-5.57,-4.1,-1.05,0.32,-1.25,0.0108
-0.16,-0.82,-0.46,30.37,189.79,13.06,-8.2,-2.05,-4.1,-1.04,0.17,-1.85,0.0114
-0.07,-0.8,-0.36,62.13,140.14,14.68,-8.79,-0.88,-4.1,-1.14,0.08,-1.44,0.012
0.0,-0.94,-0.19,52.73,63.48,-2.22,-9.08,0.88,-3.81,-1.37,-0.0,0.42,0.0125
0.19,-0.94,-0.31,7.55,53.15,-5.79,-9.67,1.46,-3.52,-1.2,-0.19,1.57,0.013
0.14,-1.11,-0.44,10.72,48.3,-6.16,-8.5,1.76,-3.52,-1.18,-0.12,1.46,0.0135
0.05,-0.98,-0.31,-12.57,89.38,-40.6,-7.91,2.34,-3.52,-1.26,-0.05,1.11,0.014
0.21,-0.73,-0.19,20.24,67.5,-9.3,-8.2,3.22,-3.52,-1.2,-0.27,1.14,0.0144
0.2,-0.65,-0.12,14.15,25.34,50.42,-8.5,4.98,-3.22,-1.23,-0.29,1.23,0.0149
0.14,-1.09,0.03,-37.9,30.22,46.64,-9.67,6.45,-3.81,-1.44,-0.13,1.06,0.0154
0.3,-1.08,-0.17,31.65,46.58,24.06,-10.55,5.86,-3.22,-1.26,-0.27,1.32,0.0159
0.06,-0.89,-0.26,24.11,29.88,6.25,-10.55,6.15,-3.81,-1.28,-0.06,1.41,0.0164
-0.09,-1.0,-0.2,-32.07,26.54,-25.26,-9.38,6.15,-4.1,-1.35,0.09,1.35,0.0169
0.17,-1.02,-0.04,-8.47,-51.65,-45.17,-9.08,4.98,-3.81,-1.41,-0.16,0.96,0.0174
0.32,-0.9,-0.24,-5.46,-45.75,28.5,-8.5,3.22,-3.52,-1.16,-0.33,1.28,0.0179
0.03,-1.11,-0.45,-40.95,24.62,-9.6,-7.32,2.64,-4.69,-1.19,-0.03,0.98,0.0183
-0.06,-0.77,-0.76,-49.54,27.76,-72.33,-5.27,1.17,-5.27,-0.79,0.05,1.58,0.0188
-0.08,-0.92,-0.65,-21.7,6.89,-28.34,-4.69,0.88,-5.86,-0.95,0.07,0.59,0.0192
0.49,-0.68,-0.38,0.54,-5.58,6.97,-4.1,0.88,-5.27,-0.83,-0.56,-1.17,0.0196
0.42,-0.83,-0.51,14.39,-20.23,46.43,-4.69,-0.29,-4.1,-0.9,-0.4,-1.6,0.0201
0.05,-1.0,-0.72,5.58,12.37,-0.37,-5.57,0.0,-4.69,-0.94,-0.04,-0.37,0.0205
0.09,-1.0,-0.76,-15.86,32.71,-2.3,-4.69,-0.59,-5.27,-0.92,-0.07,-0.64,0.0209
0.16,-1.05,-0.72,-22.44,38.06,29.3,-3.81,0.29,-5.27,-0.96,-0.13,-0.17,0.0214
0.03,-1.06,-0.43,-2.54,62.29,-29.9,-3.22,-0.59,-4.69,-1.18,-0.02,-0.22,0.0218
0.2,-0.77,-0.18,18.71,30.38,-56.47,-2.64,-1.17,-4.1,-1.23,-0.25,-0.69,0.0223
0.22,-0.84,-0.14,39.42,-61.5,38.76,-3.52,-2.93,-4.1,-1.27,-0.25,-1.08,0.0227
0.3,-0.91,-0.34,-69.64,-3.84,7.6,-2.05,-2.64,-4.98,-1.11,-0.29,-0.98,0.0232
0.35,-0.92,-0.57,-49.39,13.48,9.21,-2.34,-2.64,-6.74,-0.94,-0.32,-0.98,0.0236
0.02,-0.82,-0.77,17.48,23.64,-13.85,-1.17,-3.52,-7.62,-0.82,-0.02,-0.66,0.0241
0.18,-0.93,-0.59,5.36,40.94,-15.8,-1.46,-3.52,-7.03,-0.99,-0.16,-0.79,0.0245
0.42,-1.11,-0.5,6.34,20.06,19.8,-2.05,-2.93,-8.5,-1.04,-0.33,-0.83,0.0249
0.4,-1.08,-0.59,14.72,23.54,-27.39,-1.46,-4.39,-8.79,-0.98,-0.32,-0.94,0.0254
0.27,-0.71,-0.61,-5.33,35.32,-23.99,-1.17,-4.69,-9.08,-0.81,-0.28,-0.99,0.0258
0.22,-0.59,-0.79,-2.02,5.87,5.77,-1.17,-5.57,-9.67,-0.62,-0.22,-1.1,0.0262
-0.07,-1.05,-0.7,-13.83,30.53,29.3,-1.76,-4.98,-9.96,-0.98,0.06,-0.53,0.0267
0.45,-0.73,-0.4,23.04,-0.35,9.07,-2.64,-4.98,-10.84,-0.88,-0.5,-1.19,0.0271
0.58,-0.88,-0.36,45.84,-52.83,-4.23,-2.34,-5.27,-8.79,-0.91,-0.55,-1.32,0.0276
0.26,-0.91,-0.6,18.64,-44.33,-19.97,-2.64,-6.74,-9.38,-0.95,-0.24,-1.09,0.028
0.2,-0.84,-0.78,-39.38,-34.26,-0.05,-0.88,-7.62,-9.96,-0.81,-0.18,-1.03,0.0284
0.26,-1.0,-0.87,-51.67,10.23,16.25,-0.88,-7.62,-11.13,-0.83,-0.19,-0.98,0.0288
0.14,-1.37,-0.71,11.36,43.14,-49.1,-0.59,-9.08,-11.43,-1.08,-0.09,-0.84,0.0292
0.33,-0.56,-0.34,70.01,22.35,-67.6,-0.59,-10.84,-9.67,-0.87,-0.46,-1.39,0.0297
0.36,-0.65,-0.27,48.79,-48.47,23.19,-2.05,-11.72,-9.38,-0.96,-0.48,-1.49,0.0301
0.36,-1.05,-0.36,-37.15,-15.28,39.83,-1.46,-11.13,-9.96,-1.12,-0.31,-1.23,0.0305
0.44,-0.85,-0.55,-9.65,0.03,-5.15,-1.46,-11.13,-10.84,-0.88,-0.41,-1.35,0.0309
0.3,-0.87,-0.63,21.77,18.19,-13.02,-0.88,-11.13,-10.84,-0.89,-0.27,-1.2,0.0313
0.35,-0.9,-0.42,33.64,-8.03,-8.83,-1.76,-11.43,-10.25,-1.03,-0.34,-1.28,0.0317
0.49,-0.98,-0.15,40.86,-61.2,-9.22,-1.76,-12.3,-9.96,-1.09,-0.46,-1.43,0.0321
0.51,-1.05,-0.31,-1.23,-60.77,-5.05,-2.05,-12.89,-12.01,-1.05,-0.44,-1.35,0.0325
0.3,-1.08,-0.49,2.55,-27.37,-7.58,-2.05,-12.89,-12.89,-1.08,-0.25,-1.13,0.0329
0.34,-0.64,-0.51,20.91,-16.25,-31.33,-2.34,-13.48,-13.48,-0.81,-0.4,-1.37,0.0333
0.31,-0.67,-0.69,38.6,-29.82,11.47,-2.34,-13.18,-14.36,-0.72,-0.31,-1.31,0.0337
0.04,-1.19,-0.48,14.06,-12.43,25.17,-1.17,-13.18,-13.77,-1.19,-0.03,-0.85,0.0341
0.49,-0.68,-0.3,35.52,-19.1,29.11,-2.64,-12.3,-14.06,-0.87,-0.58,-1.46,0.0345
0.37,-0.93,-0.34,44.67,-42.02,9.19,-2.93,-12.89,-13.48,-1.07,-0.36,-1.24,0.0349
0.28,-0.87,-0.46,1.88,-40.18,-10.98,-2.64,-12.89,-14.06,-1.02,-0.27,-1.15,0.0354
0.22,-1.1,-0.51,-42.36,-31.52,10.88,-2.64,-12.6,-16.11,-1.1,-0.18,-0.95,0.0358
0.21,-1.14,-0.58,-26.87,-29.91,-17.58,-2.34,-12.6,-16.41,-1.07,-0.16,-0.93,0.0362
0.27,-1.06,-0.31,13.24,11.6,-12.77,-2.64,-12.01,-17.87,-1.2,-0.24,-0.9,0.0366
0.31,-0.38,-0.23,39.22,-36.45,-1.34,-3.22,-12.6,-17.87,-0.77,-0.61,-1.43,0.037
-0.0,-1.0,-0.17,19.28,-80.41,-12.63,-3.22,-13.18,-18.46,-1.4,0.0,-0.64,0.0374
0.28,-1.01,-0.36,-111.36,-76.48,28.46,-3.22,-11.72,-19.92,-1.15,-0.26,-0.88,0.0378
0.48,-1.05,-0.5,14.59,-6.46,28.61,-2.93,-10.84,-20.51,-0.99,-0.4,-1.03,0.0382
0.11,-0.95,-0.66,70.05,73.69,-0.84,-3.52,-10.84,-19.34,-0.95,-0.1,-0.78,0.0386
0.17,-0.86,-0.57,15.91,33.9,-39.55,-3.52,-10.84,-19.04,-0.96,-0.16,-0.86,0.039
0.28,-1.0,-0.34,-12.21,14.98,-24.1,-3.22,-11.72,-19.92,-1.16,-0.26,-0.88,0.0395
0.47,-0.93,-0.33,-14.89,-15.3,1.93,-3.22,-10.84,-21.09,-1.01,-0.45,-1.07,0.0399
0.08,-1.3,-0.34,-34.54,42.94,9.66,-3.22,-10.55,-21.09,-1.31,-0.06,-0.56,0.0403
0.34,-0.53,-0.45,8.31,12.23,-50.84,-3.81,-10.84,-22.27,-0.76,-0.46,-1.2,0.0407
0.16,-0.89,-0.6,25.05,3.94,28.24,-3.81,-9.67,-21.09,-0.96,-0.15,-0.75,0.0411
-0.02,-1.12,-0.43,18.94,-23.17,-5.95,-3.52,-10.25,-21.68,-1.2,0.02,-0.47,0.0415
0.37,-0.71,-0.05,43.98,-101.15,-9.51,-3.52,-9.96,-21.09,-1.09,-0.48,-1.04,0.0419
0.52,-0.77,-0.01,29.01,-106.59,26.21,-3.52,-8.2,-21.09,-0.98,-0.6,-1.13,0.0423
0.03,-1.06,-0.44,14.11,-80.06,39.95,-3.52,-7.03,-20.8,-1.18,-0.03,-0.4,0.0427
0.02,-1.1,-0.6,-28.18,-83.3,3.0,-3.81,-6.15,-21.97,-1.07,-0.02,-0.36,0.043
0.14,-1.03,-0.63,-25.2,-73.6,-11.7,-3.81,-5.27,-22.27,-1.01,-0.12,-0.45,0.0434
0.05,-0.94,-0.51,-7.45,-66.47,-18.95,-3.81,-5.86,-22.56,-1.07,-0.05,-0.38,0.0439
0.15,-0.73,-0.31,-19.13,-76.61,-5.75,-3.81,-4.69,-23.14,-1.13,-0.18,-0.45,0.0443
0.09,-0.96,-0.24,10.52,-55.68,38.84,-4.1,-4.39,-22.56,-1.31,-0.09,-0.3,0.0447
-0.01,-0.93,-0.21,47.42,-106.35,-7.82,-4.1,-3.81,-21.09,-1.35,0.01,-0.18,0.0451
0.02,-1.1,-0.17,13.8,-65.55,-1.03,-3.22,-4.1,-20.8,-1.42,-0.02,-0.22,0.0454
0.14,-0.99,-0.28,20.44,-57.66,4.81,-4.1,-4.1,-20.8,-1.27,-0.14,-0.37,0.0458
0.11,-0.91,-0.52,-1.3,-50.02,13.3,-3.22,-3.81,-19.92,-1.04,-0.1,-0.37,0.0462
0.05,-0.82,-0.68,-48.59,-1.03,8.38,-3.81,-3.52,-20.8,-0.88,-0.05,-0.33,0.0466
-0.02,-0.93,-0.52,-75.01,-29.11,-47.12,-3.81,-4.1,-21.39,-1.06,0.02,-0.21,0.047
0.21,-1.18,-0.35,-37.13,4.48,-45.99,-3.52,-4.39,-21.97,-1.24,-0.17,-0.4,0.0474
0.21,-0.73,-0.53,10.49,14.7,-56.49,-3.52,-5.57,-22.27,-0.91,-0.22,-0.64,0.0478
-0.11,-0.92,-0.46,29.94,14.31,-15.0,-3.22,-5.86,-21.97,-1.09,0.11,-0.18,0.0482
0.3,-0.99,-0.26,56.66,-73.68,-55.64,-3.22,-6.74,-20.21,-1.19,-0.28,-0.68,0.0486
0.1,-1.22,-0.19,8.95,-80.89,-4.84,-2.64,-7.03,-20.8,-1.39,-0.08,-0.42,0.049
0.38,-0.68,-0.24,-5.07,-82.89,-34.21,-3.22,-7.32,-19.63,-0.98,-0.49,-1.01,0.0494
0.12,-0.88,-0.48,9.48,-67.98,-45.68,-3.22,-8.79,-19.63,-1.06,-0.12,-0.65,0.0498
0.05,-1.03,-0.72,10.93,-77.34,-6.23,-2.64,-9.08,-19.92,-0.96,-0.04,-0.6,0.0502
0.16,-0.98,-0.59,-25.79,-8.8,-12.6,-3.52,-9.08,-20.21,-1.02,-0.14,-0.7,0.0506
0.57,-0.97,-0.37,29.44,-87.81,-60.23,-3.81,-9.96,-20.8,-0.96,-0.5,-1.13,0.051
0.3,-0.79,-0.63,33.91,-95.15,-30.59,-3.52,-10.55,-21.09,-0.85,-0.29,-0.99,0.0514
0.3,-0.76,-0.52,-10.71,-36.51,29.37,-3.52,-10.25,-21.39,-0.91,-0.31,-0.96,0.0518
0.42,-0.88,-0.58,9.05,-6.26,2.92,-3.52,-9.96,-21.39,-0.89,-0.37,-1.02,0.0522
0.26,-1.01,-0.64,34.48,21.01,-12.95,-4.1,-10.25,-19.92,-0.97,-0.21,-0.87,0.0526
0.33,-0.77,-0.58,11.08,18.42,19.87,-3.52,-9.96,-20.51,-0.86,-0.33,-1.02,0.053
0.23,-0.96,-0.61,-20.84,4.97,25.98,-3.52,-9.38,-20.21,-0.98,-0.2,-0.8,0.0534
0.29,-1.0,-0.43,-14.79,25.53,19.26,-3.52,-8.5,-20.8,-1.09,-0.26,-0.76,0.0538
0.41,-0.86,-0.38,16.27,2.54,-11.27,-3.52,-9.67,-20.51,-0.99,-0.41,-1.01,0.0542
0.29,-0.92,-0.57,0.43,16.02,7.52,-3.81,-9.38,-20.8,-0.97,-0.26,-0.86,0.0546
0.25,-0.87,-0.6,-14.79,35.61,9.25,-4.1,-9.08,-20.51,-0.93,-0.23,-0.85,0.055
0.25,-0.89,-0.52,-8.58,26.63,15.76,-3.22,-9.08,-21.39,-1.0,-0.23,-0.78,0.0554
0.24,-0.94,-0.49,3.27,16.14,8.8,-3.52,-9.38,-20.51,-1.04,-0.22,-0.78,0.0558
0.26,-1.0,-0.43,6.5,-0.92,-3.92,-4.1,-8.79,-20.8,-1.1,-0.23,-0.75,0.0562
0.31,-0.88,-0.45,5.42,-14.4,4.56,-3.22,-9.08,-20.8,-1.01,-0.31,-0.86,0.0566
0.27,-0.93,-0.52,2.2,-8.04,-4.86,-3.81,-9.38,-20.51,-1.0,-0.25,-0.84,0.0569
0.26,-0.92,-0.53,1.79,-2.09,-9.69,-4.1,-9.08,-20.51,-1.0,-0.24,-0.83,0.0573
0.25,-0.87,-0.52,0.05,-2.67,-7.14,-3.22,-8.79,-20.51,-0.98,-0.24,-0.8,0.0577
0.3,-0.9,-0.48,1.95,-8.89,-0.95,-3.52,-9.08,-21.09,-1.0,-0.29,-0.85,0.0581
0.28,-0.9,-0.53,3.78,-10.4,-5.3,-3.81,-9.38,-20.21,-0.99,-0.26,-0.86,0.0585
0.29,-0.9,-0.55,1.86,-3.88,-2.94,-3.81,-9.96,-20.8,-0.97,-0.27,-0.89,0.0589
0.29,-0.91,-0.53,3.7,-0.18,-6.66,-3.22,-9.38,-20.21,-0.99,-0.27,-0.86,0.0593
0.27,-0.87,-0.53,5.25,-1.24,-2.31,-3.52,-9.38,-19.63,-0.97,-0.26,-0.88,0.0596
0.29,-0.91,-0.52,1.01,1.46,3.39,-3.52,-9.67,-21.09,-0.99,-0.27,-0.86,0.06
0.29,-0.89,-0.53,4.89,-2.44,-0.53,-3.22,-9.67,-20.21,-0.98,-0.27,-0.88,0.0604
0.28,-0.89,-0.53,-0.27,2.53,6.19,-3.52,-9.38,-20.8,-0.98,-0.26,-0.85,0.0608
0.29,-0.92,-0.52,2.57,0.47,0.98,-4.1,-8.79,-20.8,-1.0,-0.27,-0.83,0.0612
0.29,-0.89,-0.53,1.62,1.95,-2.69,-2.93,-9.38,-20.21,-0.97,-0.27,-0.86,0.0616
0.28,-0.89,-0.52,0.96,-0.94,-1.98,-3.81,-9.67,-20.51,-0.98,-0.27,-0.88,0.0619
0.3,-0.87,-0.52,2.33,-2.1,-3.33,-4.1,-9.96,-20.8,-0.97,-0.29,-0.92,0.0623
0.3,-0.9,-0.53,1.23,-1.81,0.53,-3.81,-9.08,-20.8,-0.98,-0.28,-0.87,0.0627
0.3,-0.91,-0.53,2.9,-2.64,-1.38,-3.52,-8.5,-20.21,-0.98,-0.27,-0.84,0.0631
0.29,-0.89,-0.55,2.77,-0.79,-0.73,-3.52,-9.08,-20.8,-0.96,-0.27,-0.86,0.0635
0.3,-0.89,-0.52,2.13,-1.25,-3.96,-3.22,-9.67,-21.09,-0.98,-0.28,-0.87,0.0639
0.29,-0.89,-0.54,3.43,-1.34,-2.62,-2.64,-9.67,-20.21,-0.97,-0.27,-0.88,0.0643
0.3,-0.9,-0.54,1.99,-1.58,-5.45,-3.52,-9.96,-21.68,-0.97,-0.28,-0.87,0.0647
0.31,-0.88,-0.53,3.29,-2.95,-0.44,-2.93,-9.67,-21.09,-0.96,-0.29,-0.88,0.065
0.3,-0.91,-0.54,6.39,-0.63,-4.77,-3.22,-9.67,-21.09,-0.98,-0.27,-0.86,0.0654
0.31,-0.9,-0.52,2.81,-0.27,-2.68,-3.22,-9.38,-21.09,-0.98,-0.29,-0.86,0.0658
0.31,-0.9,-0.54,5.89,-5.68,-1.77,-3.52,-9.38,-20.51,-0.97,-0.29,-0.89,0.0662
0.31,-0.88,-0.54,0.73,-0.37,-3.14,-3.81,-9.96,-21.09,-0.95,-0.29,-0.92,0.0666
0.32,-0.88,-0.52,4.05,-5.2,-6.68,-3.81,-9.67,-20.8,-0.96,-0.3,-0.92,0.067
0.3,-0.89,-0.53,7.16,0.79,-0.75,-3.52,-9.08,-19.63,-0.97,-0.29,-0.9,0.0674
0.31,-0.93,-0.53,3.63,2.94,-1.98,-3.52,-10.25,-20.8,-0.99,-0.28,-0.9,0.0678
0.32,-0.87,-0.52,1.88,-0.61,-0.46,-3.52,-9.67,-20.21,-0.96,-0.31,-0.93,0.0682
0.32,-0.9,-0.51,-0.96,-1.15,2.17,-3.22,-9.67,-20.8,-0.98,-0.3,-0.89,0.0686
0.33,-0.9,-0.5,4.52,-3.41,2.07,-3.81,-9.67,-20.8,-0.98,-0.31,-0.92,0.069
0.3,-0.91,-0.54,3.62,0.18,1.29,-4.1,-9.67,-20.21,-0.97,-0.28,-0.91,0.0693
0.32,-0.87,-0.52,4.04,-1.51,1.5,-3.52,-9.38,-21.09,-0.96,-0.3,-0.9,0.0697
0.31,-0.91,-0.52,3.19,-1.25,1.02,-2.93,-9.67,-20.51,-0.98,-0.29,-0.88,0.0701
0.32,-0.88,-0.52,3.61,1.04,-0.5,-2.93,-9.96,-21.39,-0.96,-0.3,-0.9,0.0705
0.31,-0.9,-0.51,0.37,-0.4,3.0,-3.22,-10.55,-20.51,-0.98,-0.29,-0.93,0.0709
0.32,-0.9,-0.52,2.69,0.27,-2.06,-3.22,-10.25,-20.21,-0.98,-0.29,-0.93,0.0713
0.31,-0.9,-0.53,2.94,1.53,-1.05,-3.52,-9.38,-20.51,-0.97,-0.28,-0.88,0.0717
0.32,-0.87,-0.52,2.51,-0.41,1.72,-4.1,-9.38,-20.8,-0.96,-0.31,-0.92,0.0721
0.3,-0.93,-0.52,3.28,-2.08,-2.98,-3.52,-9.67,-20.8,-1.0,-0.27,-0.87,0.0725
0.33,-0.89,-0.52,2.14,-3.36,2.05,-3.81,-8.79,-20.21,-0.97,-0.31,-0.9,0.0729
0.29,-0.92,-0.55,0.81,-6.44,13.46,-3.81,-9.08,-20.51,-0.98,-0.27,-0.86,0.0733
0.25,-0.97,-0.56,8.58,-68.76,104.77,-3.81,-8.2,-20.8,-1.0,-0.22,-0.75,0.0737
0.03,-1.13,-0.47,53.88,-89.83,15.09,-2.93,-7.62,-18.75,-1.18,-0.03,-0.47,0.074
0.36,-0.71,-0.42,14.66,-36.91,-8.25,-2.93,-7.62,-19.04,-0.91,-0.41,-0.99,0.0744
0.2,-0.77,-0.5,-5.71,-5.5,21.06,-3.22,-7.91,-19.34,-0.96,-0.22,-0.77,0.0748
0.07,-1.04,-0.46,-28.18,22.83,-14.69,-3.81,-7.32,-20.21,-1.15,-0.06,-0.48,0.0752
0.32,-0.83,-0.39,-113.53,107.53,-91.45,-4.1,-9.08,-21.97,-1.02,-0.34,-0.89,0.0756
0.43,-0.9,-0.58,-128.97,82.12,-105.42,-4.1,-10.84,-24.02,-0.89,-0.38,-1.02,0.0761
0.44,-0.8,-0.83,-55.05,20.05,-92.99,-5.86,-12.3,-24.61,-0.71,-0.36,-1.21,0.0765
0.45,-0.72,-0.94,-48.99,-14.53,-20.81,-6.15,-13.18,-25.78,-0.6,-0.36,-1.3,0.0769
0.47,-0.75,-0.95,-14.55,-5.82,7.61,-5.86,-12.89,-25.49,-0.62,-0.37,-1.28,0.0773
0.54,-0.62,-0.83,-1.41,-1.72,4.8,-6.74,-11.72,-26.07,-0.56,-0.48,-1.41,0.0777
0.52,-0.68,-0.83,0.75,1.95,-3.69,-6.45,-12.3,-25.49,-0.6,-0.45,-1.36,0.0781
0.54,-0.63,-0.83,5.92,-3.34,-5.02,-5.86,-12.6,-26.37,-0.57,-0.47,-1.37,0.0785
0.49,-0.62,-0.9,2.2,2.91,-0.93,-6.15,-12.6,-26.37,-0.54,-0.42,-1.37,0.0789
0.53,-0.64,-0.83,-7.68,1.93,1.01,-6.74,-12.89,-26.37,-0.58,-0.47,-1.4,0.0793
0.54,-0.64,-0.82,-4.84,-3.45,1.5,-6.15,-12.01,-25.78,-0.58,-0.48,-1.38,0.0796
0.49,-0.62,-0.88,-9.95,-4.38,7.91,-6.15,-11.72,-26.37,-0.55,-0.43,-1.35,0.08
0.17,-0.47,-0.91,-4.29,-162.38,70.53,-6.74,-9.08,-28.12,-0.47,-0.17,-1.17,0.0804
0.13,-0.62,-1.06,-97.59,-97.22,46.86,-7.62,-6.45,-29.0,-0.52,-0.11,-0.91,0.0809
0.0,-0.41,-1.07,-234.31,-189.32,-5.78,-9.08,-4.39,-30.76,-0.36,-0.0,-1.07,0.0813
0.0,-0.53,0.06,-250.0,3.23,-250.0,-16.99,-3.22,-34.57,-1.46,-0.01,-0.11,0.0817
-0.1,0.17,-1.28,-111.59,-250.0,-39.96,-18.16,1.76,-32.52,0.13,0.08,2.95,0.0821
0.09,0.18,-0.93,-123.74,-138.89,-4.97,-19.63,5.27,-29.88,0.18,-0.1,3.05,0.0825
-0.2,0.49,-1.19,-41.19,49.36,-68.54,-19.92,3.81,-31.64,0.39,0.16,2.86,0.0829
-0.46,0.27,-1.1,45.4,167.29,57.69,-19.63,1.17,-32.52,0.22,0.39,2.66,0.0833
-1.18,0.61,-1.13,-91.58,-86.75,-139.42,-19.63,1.46,-33.11,0.36,0.74,2.42,0.0837
0.19,0.52,-1.66,-41.56,-58.53,65.09,-19.92,2.64,-32.81,0.3,-0.11,-3.11,0.0841
-0.35,0.02,-1.11,-25.69,-54.84,52.31,-21.97,2.64,-30.76,0.02,0.3,2.66,0.0845
-0.27,0.46,-0.82,33.48,-136.8,-36.31,-22.56,2.93,-30.76,0.48,0.28,2.81,0.0849
-0.79,0.47,-0.85,22.64,-129.36,4.03,-22.85,4.69,-29.3,0.38,0.68,2.48,0.0853
-0.04,0.39,-0.77,45.62,-39.96,134.06,-24.02,3.81,-28.12,0.47,0.05,2.99,0.0857
-0.46,0.58,-0.87,24.57,10.07,19.78,-23.73,4.69,-28.71,0.54,0.41,2.69,0.086
-0.35,0.63,-0.83,8.58,-17.3,11.66,-23.73,3.52,-28.12,0.61,0.33,2.79,0.0864
-0.54,0.63,-0.81,13.5,-31.94,13.61,-23.44,4.39,-27.83,0.58,0.48,2.66,0.0868
-0.34,0.6,-0.85,10.99,33.52,10.87,-24.02,4.69,-28.12,0.58,0.32,2.77,0.0872
-0.47,0.64,-0.86,9.98,16.06,-0.24,-23.14,4.1,-28.71,0.58,0.41,2.71,0.0876
-0.37,0.63,-0.81,44.19,-2.2,81.25,-23.44,4.39,-28.12,0.61,0.34,2.76,0.0879
-0.4,0.64,-0.9,9.16,5.77,-2.7,-23.14,4.1,-28.71,0.58,0.35,2.75,0.0883
-0.53,0.63,-0.8,2.94,-5.14,-7.78,-22.56,4.1,-28.42,0.58,0.48,2.65,0.0887
-0.45,0.57,-0.85,4.09,15.5,-14.31,-22.85,4.39,-28.42,0.54,0.42,2.69,0.0891
-0.45,0.56,-0.84,6.78,7.84,-3.26,-23.14,4.1,-28.42,0.53,0.42,2.7,0.0894
-0.49,0.55,-0.88,-0.49,13.34,-50.65,-22.56,4.39,-28.42,0.5,0.45,2.66,0.0898
-0.47,0.57,-0.86,-23.09,97.73,21.77,-21.97,3.52,-29.88,0.53,0.43,2.69,0.0902
-0.08,0.38,-0.89,33.23,111.55,-59.11,-20.8,3.22,-30.18,0.4,0.09,2.95,0.0906
-0.17,0.57,-1.0,-8.95,106.16,-49.61,-20.21,2.05,-31.35,0.51,0.14,2.94,0.091
-0.37,0.45,-1.03,-10.93,36.07,85.7,-20.21,1.17,-31.64,0.39,0.31,2.79,0.0914
-0.27,0.32,-0.96,-19.18,21.82,84.85,-21.39,2.05,-31.93,0.31,0.26,2.81,0.0918
-0.4,0.33,-1.0,8.79,-50.25,62.19,-21.97,2.64,-31.35,0.3,0.36,2.71,0.0921
-0.08,0.64,-1.08,34.81,-31.86,40.61,-22.56,2.34,-30.18,0.53,0.06,3.02,0.0925
-0.32,0.59,-0.96,11.0,7.66,-10.33,-21.39,3.22,-30.47,0.53,0.28,2.8,0.0929
-0.44,0.4,-0.92,24.11,-5.62,23.67,-20.8,3.52,-30.47,0.38,0.42,2.65,0.0933
-0.21,0.57,-1.0,20.74,11.34,2.48,-21.39,3.52,-29.88,0.51,0.18,2.88,0.0937
-0.42,0.48,-0.94,7.34,13.21,-1.8,-20.8,3.22,-30.47,0.44,0.38,2.71,0.094
-0.39,0.47,-0.96,12.93,-8.08,4.55,-20.51,3.22,-30.18,0.42,0.35,2.72,0.0944
-0.41,0.47,-0.95,13.19,0.92,9.36,-21.09,3.81,-30.47,0.43,0.37,2.7,0.0948
-0.43,0.42,-0.96,3.97,-0.69,5.01,-20.8,4.1,-29.88,0.38,0.39,2.66,0.0951
-0.45,0.46,-0.95,2.4,0.6,-0.64,-20.21,3.22,-30.18,0.41,0.4,2.67,0.0955
-0.4,0.48,-0.98,-11.53,17.17,-29.02,-20.8,3.52,-30.76,0.43,0.35,2.71,0.0959
-0.2,0.48,-1.12,-96.37,244.25,208.15,-22.27,0.59,-31.35,0.4,0.17,2.97,0.0963
-0.26,-0.07,-1.11,97.8,84.37,-250.0,-19.34,-0.88,-33.4,-0.06,0.23,2.77,0.0967
-1.44,0.52,-1.67,249.99,159.47,-247.35,-14.65,-2.93,-33.4,0.23,0.69,2.4,0.0971
-0.34,0.02,-1.39,89.47,70.79,-56.63,-13.18,-4.69,-32.52,0.01,0.24,2.91,0.0975
-0.06,-0.15,-1.41,-18.36,155.59,-12.51,-13.18,-6.15,-32.52,-0.1,0.04,-2.69,0.0979
0.05,-0.16,-1.28,3.17,89.79,-42.07,-12.89,-8.5,-32.81,-0.12,-0.04,-2.31,0.0983
0.12,-0.16,-1.24,1.71,39.96,-0.69,-12.89,-9.67,-32.23,-0.13,-0.1,-2.18,0.0987
0.25,-0.1,-1.17,17.86,23.26,-5.68,-13.77,-9.96,-32.81,-0.08,-0.21,-2.17,0.0991
0.29,-0.27,-1.23,63.2,100.32,-62.26,-12.89,-10.84,-31.35,-0.21,-0.23,-1.94,0.0995
0.65,-0.32,-1.18,-15.73,36.8,-83.05,-12.6,-11.72,-31.93,-0.23,-0.49,-1.84,0.0999
0.3,-0.23,-1.19,17.51,-12.34,-30.76,-12.6,-11.13,-31.93,-0.18,-0.24,-1.94,0.1003
0.42,-0.15,-1.21,14.88,-9.88,-2.31,-11.43,-11.72,-31.35,-0.12,-0.33,-1.95,0.1007
0.47,-0.1,-1.12,-5.64,29.5,-8.29,-12.01,-11.43,-31.35,-0.08,-0.4,-1.98,0.1011
0.26,-0.05,-1.22,-63.39,-67.57,-230.78,-14.65,-11.13,-32.23,-0.04,-0.21,-2.22,0.1016
0.41,-0.06,-1.16,-7.58,-12.69,-10.82,-14.36,-11.72,-32.23,-0.05,-0.34,-2.11,0.102
0.41,-0.0,-1.1,-19.39,-20.07,-14.02,-14.94,-11.72,-32.81,-0.0,-0.36,-2.16,0.1024
0.42,-0.06,-1.34,37.08,11.02,-7.79,-15.53,-11.13,-32.81,-0.04,-0.3,-2.18,0.1028
0.4,-0.02,-1.21,2.6,9.39,-10.77,-15.23,-11.43,-32.52,-0.01,-0.32,-2.19,0.1032
0.23,-0.18,-1.24,9.42,-25.18,4.83,-14.94,-11.43,-32.52,-0.14,-0.18,-2.12,0.1036
0.35,-0.07,-1.24,-24.44,-25.72,-30.07,-14.94,-11.13,-33.11,-0.06,-0.27,-2.17,0.104
0.38,0.03,-1.15,-38.89,-35.31,33.31,-15.82,-9.96,-32.52,0.03,-0.32,-2.27,0.1044
0.3,-0.0,-1.35,-1.88,-16.06,-22.58,-16.11,-10.84,-33.11,-0.0,-0.22,-2.31,0.1049
0.2,-0.06,-1.42,67.86,20.36,-37.56,-15.23,-10.55,-32.52,-0.04,-0.14,-2.32,0.1053
0.32,-0.14,-1.31,96.68,42.34,-74.36,-14.94,-10.84,-31.64,-0.1,-0.23,-2.16,0.1057
0.38,-0.13,-1.19,163.08,55.87,42.95,-11.13,-11.43,-30.76,-0.1,-0.31,-1.96,0.1061
0.26,-0.56,-1.14,58.53,6.68,-50.5,-10.55,-12.89,-30.47,-0.44,-0.2,-1.46,0.1065
0.39,-0.43,-1.12,90.48,-2.22,-9.97,-8.5,-13.18,-29.3,-0.35,-0.32,-1.57,0.1069
0.57,-0.47,-1.0,93.56,5.97,17.92,-8.2,-12.6,-27.83,-0.39,-0.48,-1.59,0.1073
0.48,-0.57,-0.78,71.59,24.96,65.04,-6.15,-12.3,-25.78,-0.56,-0.46,-1.39,0.1077
0.44,-0.85,-0.61,127.07,-8.93,50.97,-5.57,-12.3,-24.02,-0.85,-0.39,-1.14,0.1081
0.44,-0.75,-0.7,67.44,21.23,153.32,-5.86,-11.43,-22.85,-0.74,-0.4,-1.24,0.1085
0.27,-1.01,-0.74,124.94,-35.54,118.36,-4.1,-9.67,-20.8,-0.91,-0.21,-0.86,0.1089
0.2,-1.0,-0.48,108.86,-7.19,39.16,-3.22,-9.38,-18.75,-1.09,-0.18,-0.76,0.1093
0.12,-0.92,-0.36,73.39,-33.85,-36.74,-3.52,-9.67,-17.58,-1.18,-0.12,-0.71,0.1097
0.08,-1.0,-0.1,205.48,-138.2,143.97,-3.81,-8.79,-14.94,-1.44,-0.08,-0.63,0.1101
-0.08,-0.89,0.03,38.97,-78.64,-19.51,-3.81,-9.08,-14.06,-1.47,0.09,-0.5,0.1105
-0.14,-0.76,-0.03,-79.71,-26.62,-54.37,-4.1,-9.38,-14.36,-1.38,0.19,-0.42,0.1109
-0.0,-0.89,0.14,-46.96,-66.18,44.35,-3.81,-9.96,-14.94,-1.41,0.0,-0.61,0.1113
0.07,-0.93,-0.11,-39.44,-28.4,-86.24,-4.1,-11.72,-14.94,-1.43,-0.08,-0.77,0.1117
0.11,-1.04,-0.2,153.18,-172.74,-43.43,-4.1,-12.3,-14.36,-1.35,-0.11,-0.86,0.1122
0.18,-0.72,0.15,61.55,-63.37,-20.68,-4.69,-13.48,-14.06,-1.26,-0.23,-1.09,0.1126
0.25,-0.63,0.2,4.1,-43.15,-15.05,-4.39,-13.18,-13.48,-1.1,-0.36,-1.28,0.113
0.2,-0.83,0.17,15.9,-14.56,12.47,-4.98,-13.18,-12.6,-1.26,-0.23,-1.13,0.1134
0.21,-0.8,0.13,-19.11,2.1,40.76,-4.98,-12.89,-12.89,-1.27,-0.26,-1.14,0.1138
0.26,-0.92,0.14,-5.16,30.53,33.36,-4.1,-11.43,-12.89,-1.26,-0.27,-1.08,0.1142
0.23,-0.92,0.07,-9.64,39.02,19.59,-4.39,-11.13,-13.48,-1.32,-0.24,-1.0,0.1146
0.23,-1.01,0.03,3.93,10.59,44.73,-4.39,-11.72,-13.77,-1.34,-0.23,-0.99,0.1149
0.17,-0.87,0.08,-18.81,5.12,32.66,-4.69,-9.96,-13.77,-1.36,-0.19,-0.87,0.1153
0.07,-0.9,0.06,-5.59,-3.76,85.32,-3.22,-8.79,-13.77,-1.47,-0.07,-0.66,0.1157
-0.07,-0.89,-0.01,-24.15,-14.11,42.56,-3.52,-7.91,-14.94,-1.49,0.08,-0.42,0.1161
-0.16,-0.81,-0.01,-83.33,22.49,-51.16,-3.22,-7.91,-15.82,-1.38,0.19,-0.29,0.1165
0.06,-1.02,-0.1,-113.22,69.22,-148.54,-3.52,-9.96,-17.87,-1.46,-0.06,-0.58,0.117
0.23,-1.03,-0.51,28.55,19.07,-83.23,-4.98,-12.3,-19.92,-1.08,-0.2,-0.9,0.1174
0.21,-1.06,-0.49,86.98,-96.02,-80.7,-3.81,-13.18,-18.75,-1.1,-0.18,-0.91,0.1178
0.43,-0.81,-0.37,33.46,-87.05,5.28,-4.98,-14.36,-18.16,-0.96,-0.45,-1.32,0.1182
0.39,-0.78,-0.3,14.82,-7.15,56.53,-3.81,-12.89,-18.75,-1.01,-0.44,-1.2,0.1186
0.21,-0.87,-0.25,-16.25,5.28,100.27,-4.69,-11.13,-19.34,-1.21,-0.23,-0.84,0.119
0.19,-0.91,-0.28,-26.74,-12.66,30.48,-3.81,-10.55,-18.46,-1.22,-0.19,-0.79,0.1194
0.07,-0.97,-0.34,0.42,-12.57,-5.88,-3.81,-10.25,-19.63,-1.23,-0.07,-0.61,0.1198
0.14,-0.98,-0.33,8.03,0.43,3.85,-3.52,-10.25,-19.04,-1.22,-0.14,-0.7,0.1202
0.1,-0.93,-0.3,4.18,5.39,-15.4,-3.52,-10.84,-19.04,-1.24,-0.1,-0.68,0.1206
0.11,-0.97,-0.31,-4.55,-1.4,-21.08,-4.1,-10.84,-19.63,-1.24,-0.11,-0.68,0.121
-0.05,-1.25,-0.6,-18.62,63.1,-95.92,-4.1,-11.13,-19.63,-1.13,0.04,-0.57,0.1214
0.65,-0.77,0.07,-48.9,42.4,63.06,-4.1,-10.84,-20.51,-0.87,-0.7,-1.38,0.1218
-0.07,-0.79,-0.22,47.68,-3.72,-34.6,-4.1,-10.84,-19.04,-1.29,0.08,-0.48,0.1222
-0.07,-0.87,-0.31,45.2,-10.45,-0.5,-3.81,-10.25,-18.46,-1.22,0.08,-0.49,0.1226
0.14,-0.99,-0.23,14.39,4.59,13.76,-4.1,-9.96,-18.75,-1.3,-0.13,-0.67,0.123
0.07,-1.01,-0.26,15.02,-3.57,11.5,-4.1,-9.67,-18.16,-1.31,-0.07,-0.6,0.1234
0.07,-0.87,-0.25,2.06,1.19,20.57,-2.93,-9.96,-17.29,-1.29,-0.07,-0.64,0.1238
0.05,-0.99,-0.25,9.03,-2.84,17.79,-3.81,-9.38,-17.87,-1.32,-0.05,-0.57,0.1242
0.03,-0.88,-0.22,8.61,2.11,13.05,-3.22,-8.79,-17.87,-1.32,-0.04,-0.53,0.1245
0.03,-0.97,-0.23,17.55,-0.56,8.41,-3.52,-8.79,-17.29,-1.33,-0.03,-0.54,0.125
-0.01,-0.95,-0.22,10.2,-1.63,6.65,-4.1,-8.5,-17.87,-1.34,0.01,-0.47,0.1254
-0.0,-0.95,-0.2,9.3,-1.75,-0.24,-2.93,-9.08,-17.58,-1.37,0.0,-0.5,0.1258
-0.0,-0.95,-0.21,5.32,-2.5,3.11,-3.52,-9.08,-17.58,-1.36,0.0,-0.5,0.1262
-0.01,-0.9,-0.19,4.74,3.93,5.78,-2.64,-8.79,-17.29,-1.37,0.01,-0.48,0.1265
-0.01,-0.94,-0.21,16.07,3.97,-0.41,-3.81,-8.79,-17.87,-1.35,0.01,-0.48,0.1269
-0.0,-0.96,-0.14,12.6,-0.95,2.75,-3.52,-8.79,-16.7,-1.42,0.0,-0.5,0.1273
0.02,-0.95,-0.17,4.7,2.27,12.42,-3.22,-8.5,-16.7,-1.4,-0.02,-0.51,0.1277
-0.03,-0.94,-0.14,-2.0,-2.62,-7.6,-3.22,-8.79,-17.29,-1.42,0.03,-0.46,0.1281
-0.01,-0.87,-0.19,2.88,-1.28,4.61,-3.52,-8.5,-17.87,-1.35,0.01,-0.46,0.1285
-0.02,-0.94,-0.14,-3.12,-1.14,-6.29,-3.52,-9.08,-16.99,-1.42,0.02,-0.49,0.1289
-0.01,-0.94,-0.2,12.47,-0.73,5.13,-3.52,-8.5,-16.99,-1.36,0.01,-0.48,0.1293
-0.03,-1.0,-0.15,11.32,-0.83,-7.21,-3.52,-8.79,-16.7,-1.42,0.03,-0.47,0.1297
0.04,-0.94,-0.15,15.34,15.78,17.21,-3.22,-8.79,-17.29,-1.4,-0.04,-0.53,0.1301
-0.02,-1.07,-0.01,65.1,11.23,49.71,-4.1,-7.91,-15.53,-1.55,0.02,-0.45,0.1305
-0.1,-0.91,-0.14,-5.23,-2.56,-5.78,-4.1,-7.62,-15.82,-1.38,0.1,-0.37,0.1309
-0.05,-0.96,-0.05,-3.67,-3.79,-6.43,-4.1,-8.2,-16.41,-1.49,0.06,-0.42,0.1313
-0.06,-0.95,-0.12,4.51,-0.8,7.32,-3.52,-7.91,-15.82,-1.43,0.06,-0.42,0.1317
-0.08,-0.92,-0.05,5.72,-6.7,-10.3,-4.39,-8.2,-16.11,-1.47,0.08,-0.4,0.1321
-0.06,-0.91,-0.11,1.82,-4.15,5.46,-3.52,-7.91,-16.11,-1.44,0.06,-0.41,0.1325
-0.05,-1.0,-0.07,10.38,-4.04,3.05,-3.52,-7.62,-15.53,-1.48,0.05,-0.41,0.1329
-0.06,-0.85,-0.1,-17.64,15.27,-49.9,-4.39,-8.2,-16.11,-1.44,0.07,-0.42,0.1333
-0.12,-1.07,-0.07,29.83,-4.49,10.39,-3.81,-7.62,-15.82,-1.44,0.11,-0.35,0.1337
-0.17,-0.78,-0.08,4.84,-4.07,-7.58,-4.1,-7.62,-15.23,-1.33,0.22,-0.27,0.1341
-0.1,-0.95,-0.03,12.31,0.55,20.0,-3.81,-7.03,-15.53,-1.46,0.11,-0.33,0.1345
-0.14,-0.87,-0.06,-3.02,0.08,3.53,-3.81,-7.32,-14.94,-1.4,0.16,-0.31,0.1349
-0.14,-0.93,-0.02,10.45,-0.22,-3.11,-3.52,-6.74,-15.23,-1.42,0.15,-0.28,0.1353
-0.16,-0.89,-0.03,-2.91,2.7,12.42,-4.69,-6.45,-15.23,-1.39,0.18,-0.24,0.1356
-0.16,-0.93,-0.03,4.91,2.4,4.24,-3.22,-6.74,-14.65,-1.4,0.17,-0.28,0.136
-0.13,-0.86,-0.06,-1.42,-1.7,-1.01,-3.52,-6.45,-15.23,-1.4,0.16,-0.26,0.1364
-0.14,-0.88,-0.02,3.35,-1.41,-0.23,-3.81,-7.03,-15.82,-1.41,0.16,-0.27,0.1368
-0.16,-0.95,-0.04,7.37,-1.3,-20.53,-3.81,-6.45,-14.94,-1.4,0.17,-0.26,0.1372
-0.1,-0.83,-0.05,-38.83,32.09,-61.74,-3.81,-7.03,-15.53,-1.43,0.12,-0.32,0.1376
0.03,-0.63,-0.29,-76.23,107.28,167.51,-3.22,-8.2,-17.29,-1.14,-0.05,-0.58,0.138
0.17,-1.75,-0.37,160.11,-74.86,-42.88,-3.81,-11.13,-16.99,-1.34,-0.1,-0.72,0.1385
-0.18,0.3,-0.52,-174.9,63.9,108.89,-3.22,-8.79,-17.87,0.5,0.29,-2.87,0.1389
0.28,-0.86,-0.18,-25.53,11.57,64.72,-3.52,-9.67,-17.58,-1.2,-0.31,-0.9,0.1393
0.35,0.01,-0.03,-250.0,-61.83,-30.53,-3.81,-10.25,-20.21,0.04,-1.48,-1.73,0.1397
0.2,-0.68,-0.32,-24.92,-23.4,-140.71,-3.52,-11.43,-20.21,-1.06,-0.26,-0.9,0.1401
0.5,-1.2,-0.76,-97.08,-11.6,-123.21,-5.86,-15.23,-22.85,-0.92,-0.34,-1.16,0.1405
0.19,-0.53,-0.1,-42.3,-4.84,-76.25,-6.45,-15.23,-23.44,-1.19,-0.34,-1.02,0.1409
0.49,-0.74,-0.65,-1.5,8.01,-58.99,-7.91,-16.41,-23.73,-0.74,-0.46,-1.43,0.1414
0.63,-0.85,-0.54,2.59,0.72,-16.57,-7.62,-16.11,-23.73,-0.8,-0.56,-1.46,0.1418
0.45,-0.88,-0.59,-5.49,-9.51,-59.64,-8.5,-16.99,-24.02,-0.87,-0.4,-1.32,0.1422
0.58,-0.66,-0.58,7.07,1.74,-22.19,-7.91,-18.16,-24.02,-0.68,-0.58,-1.57,0.1426
0.74,-0.81,-0.65,-4.49,17.31,3.68,-8.5,-16.99,-24.02,-0.69,-0.62,-1.58,0.143
0.65,-0.69,-0.66,-20.98,-16.15,-19.49,-9.38,-17.58,-24.61,-0.64,-0.6,-1.62,0.1434
0.69,-0.71,-0.57,2.21,0.37,7.54,-9.38,-18.16,-24.61,-0.67,-0.65,-1.64,0.1438
0.68,-0.72,-0.66,-11.44,-0.3,14.67,-8.5,-17.29,-24.9,-0.65,-0.61,-1.58,0.1442
0.64,-0.65,-0.65,-45.46,-40.84,45.9,-8.79,-16.41,-25.49,-0.62,-0.61,-1.59,0.1446
0.56,-0.64,-0.67,-9.48,-15.05,10.39,-8.5,-16.41,-25.2,-0.63,-0.54,-1.54,0.1451
0.59,-0.71,-0.56,2.14,-2.96,27.44,-8.2,-15.82,-25.2,-0.71,-0.58,-1.5,0.1454
0.48,-0.71,-0.68,27.54,-1.55,1.08,-7.91,-15.23,-24.61,-0.71,-0.45,-1.41,0.1458
1.08,-0.61,-0.64,63.8,77.77,208.18,-6.15,-14.65,-23.44,-0.46,-0.88,-1.71,0.1463
0.65,-0.73,-0.57,8.62,59.77,108.54,-5.57,-13.48,-23.44,-0.7,-0.61,-1.45,0.1467
0.47,-1.02,-1.0,146.27,76.37,120.35,-4.69,-12.01,-20.21,-0.75,-0.32,-1.19,0.1471
0.2,-0.83,-0.38,6.5,25.71,38.7,-4.1,-11.43,-20.21,-1.09,-0.22,-0.86,0.1475
0.16,-0.94,-0.39,55.84,11.5,30.33,-3.22,-10.84,-18.75,-1.15,-0.16,-0.77,0.1479
0.13,-0.85,-0.32,-29.68,-0.77,-8.4,-3.22,-11.43,-19.34,-1.18,-0.14,-0.75,0.1483
0.19,-0.96,-0.36,37.67,34.03,43.29,-3.22,-10.55,-18.46,-1.17,-0.19,-0.79,0.1487
0.13,-0.88,-0.31,34.58,47.14,45.91,-3.52,-9.38,-18.46,-1.21,-0.13,-0.68,0.1491
0.06,-1.03,-0.25,-4.64,4.01,-5.91,-3.22,-8.79,-17.87,-1.33,-0.05,-0.54,0.1495
0.03,-0.99,-0.28,5.28,-14.24,-8.31,-3.22,-9.96,-17.87,-1.29,-0.03,-0.58,0.1499
0.09,-1.02,-0.24,-9.45,-28.82,32.03,-3.22,-9.96,-17.87,-1.33,-0.09,-0.63,0.1503
0.06,-0.94,-0.23,7.58,-5.64,-0.11,-3.52,-9.96,-18.46,-1.32,-0.07,-0.6,0.1507
0.07,-0.92,-0.27,-14.76,6.54,-5.25,-2.93,-9.08,-17.58,-1.28,-0.07,-0.59,0.1511
0.03,-1.0,-0.13,9.48,22.29,-17.18,-3.22,-9.38,-17.58,-1.44,-0.03,-0.53,0.1515
-0.87,-0.06,-0.13,-108.17,-173.19,-250.0,-4.39,-12.6,-20.21,-0.07,1.4,1.75,0.1519
-0.04,-1.07,-0.4,67.35,-9.09,-19.43,-4.1,-12.01,-19.92,-1.21,0.03,-0.57,0.1523
0.28,-1.25,-0.42,31.23,6.63,15.11,-4.1,-11.13,-19.34,-1.18,-0.21,-0.83,0.1527
-0.38,-0.53,-0.31,17.97,-22.22,-35.68,-4.1,-10.55,-19.34,-0.83,0.55,0.08,0.1531
0.5,-0.75,0.12,-193.53,118.74,51.9,-4.1,-9.96,-20.8,-0.97,-0.58,-1.21,0.1535
-0.1,-1.01,-0.29,95.95,-1.17,-37.73,-3.81,-10.55,-20.21,-1.27,0.1,-0.42,0.1539
-0.39,-0.8,-0.28,-3.93,-24.57,-58.59,-3.81,-9.67,-19.34,-1.03,0.43,-0.05,0.1543
0.26,-1.03,-0.28,-7.04,-15.56,-92.39,-3.52,-11.13,-18.75,-1.22,-0.23,-0.84,0.1548
0.1,-1.06,-0.51,-22.61,-77.56,-117.26,-4.39,-13.48,-20.51,-1.11,-0.08,-0.78,0.1552
0.54,-0.9,-0.48,7.57,0.72,-21.13,-4.69,-14.06,-20.8,-0.89,-0.49,-1.3,0.1556
0.17,-0.68,-0.4,-61.43,11.15,-40.59,-4.69,-13.48,-20.21,-1.01,-0.21,-0.97,0.156
0.25,-1.31,-0.48,110.3,97.01,62.84,-3.81,-12.89,-19.04,-1.18,-0.18,-0.86,0.1564
-0.06,-0.62,-0.0,-84.75,44.46,110.6,-4.39,-12.01,-19.63,-1.47,0.1,-0.46,0.1568
0.28,-0.96,-0.4,-115.3,-38.29,-68.66,-4.39,-12.6,-20.8,-1.1,-0.26,-0.93,0.1572
0.61,-0.83,-0.77,15.11,65.94,-100.19,-4.69,-13.77,-21.68,-0.7,-0.49,-1.37,0.1576
0.37,-0.61,-0.42,-137.76,-20.05,71.02,-5.86,-14.06,-21.68,-0.83,-0.46,-1.32,0.158
0.5,-0.7,-0.55,24.17,18.32,18.37,-4.98,-13.48,-21.97,-0.75,-0.51,-1.35,0.1584
0.2,-0.65,-0.42,-32.68,-122.07,41.11,-4.98,-12.01,-22.56,-0.95,-0.26,-0.95,0.1589
0.51,-0.94,-0.57,9.76,-32.03,106.46,-4.1,-10.55,-21.68,-0.89,-0.44,-1.11,0.1593
0.2,-0.69,-0.46,-38.67,-62.23,-5.98,-4.1,-10.25,-22.27,-0.94,-0.24,-0.86,0.1597
-0.1,-0.73,-0.57,20.09,-40.35,-23.62,-4.1,-9.96,-21.68,-0.89,0.1,-0.47,0.1601
0.54,-0.98,-0.61,92.46,86.0,7.62,-4.1,-10.84,-20.21,-0.87,-0.44,-1.17,0.1604
0.47,-1.08,-0.43,109.29,98.53,83.53,-4.69,-9.96,-18.46,-1.04,-0.38,-1.05,0.1608
-0.01,-0.84,-0.24,50.38,74.55,9.45,-3.81,-9.38,-17.87,-1.29,0.01,-0.52,0.1612
0.11,-0.98,-0.15,-11.74,-3.72,-8.11,-3.52,-9.67,-17.29,-1.39,-0.11,-0.65,0.1616
0.07,-0.98,-0.25,-7.99,-15.58,2.78,-3.52,-9.67,-17.87,-1.31,-0.07,-0.61,0.162
0.11,-0.93,-0.27,-4.97,-6.42,4.01,-3.81,-9.96,-18.16,-1.26,-0.12,-0.68,0.1624
0.1,-0.95,-0.34,16.21,-6.38,37.47,-2.93,-9.38,-18.16,-1.21,-0.1,-0.64,0.1628
0.15,-0.95,-0.23,29.08,6.36,78.27,-3.81,-7.91,-17.58,-1.28,-0.16,-0.63,0.1632
0.1,-0.93,-0.23,31.03,36.52,75.7,-4.1,-6.45,-16.99,-1.31,-0.11,-0.51,0.1636
-0.41,-0.77,-0.16,-3.53,-18.91,8.69,-3.81,-5.27,-16.99,-1.05,0.48,0.24,0.164
-0.4,-1.01,-0.1,-13.05,-32.63,-39.91,-4.1,-6.15,-16.41,-1.18,0.37,0.02,0.1644
0.02,-0.97,-0.27,-12.14,14.57,-34.6,-4.69,-6.45,-17.58,-1.3,-0.02,-0.41,0.1648
-0.07,-0.73,-0.42,9.62,-20.0,-14.65,-3.52,-6.45,-16.99,-1.04,0.08,-0.37,0.1652
-0.19,-0.97,0.01,-2.89,5.5,0.39,-3.22,-6.45,-16.7,-1.38,0.19,-0.19,0.1656
-0.2,-0.92,-0.23,-0.8,-2.8,-17.38,-3.22,-7.62,-16.7,-1.25,0.2,-0.25,0.166
-0.14,-0.79,-0.26,-10.12,-70.72,54.86,-3.22,-7.03,-16.99,-1.22,0.17,-0.25,0.1664
-0.14,-0.96,-0.11,-5.1,-57.77,12.94,-4.39,-6.45,-17.87,-1.39,0.14,-0.22,0.1668
-0.07,-0.87,-0.2,-1.58,-25.83,-4.36,-3.81,-6.74,-17.87,-1.34,0.07,-0.31,0.1672
0.29,-1.04,-0.23,56.28,96.73,41.07,-4.1,-6.15,-16.99,-1.23,-0.26,-0.69,0.1676
-0.08,-1.0,-0.08,43.87,26.17,-12.27,-3.22,-5.86,-16.11,-1.46,0.08,-0.28,0.168
-0.48,-0.64,-0.02,-17.04,-14.1,-27.96,-4.1,-6.15,-15.23,-0.93,0.64,0.39,0.1684
-0.13,-0.93,-0.19,2.43,-39.21,-68.24,-3.52,-8.2,-16.11,-1.33,0.14,-0.36,0.1688
0.06,-0.99,-0.19,12.47,-11.61,-57.75,-2.93,-9.08,-15.82,-1.37,-0.06,-0.61,0.1692
0.16,-0.97,-0.18,-8.87,-13.06,-53.1,-4.1,-9.38,-16.41,-1.32,-0.16,-0.73,0.1696
-0.03,-0.96,-0.03,-20.87,9.64,61.24,-2.93,-8.2,-16.11,-1.52,0.04,-0.44,0.17
-0.36,-0.86,-0.16,-13.83,44.79,113.1,-4.1,-5.27,-16.99,-1.14,0.39,0.11,0.1704
-0.15,-0.91,-0.39,5.33,43.5,27.16,-4.69,-5.27,-18.16,-1.14,0.15,-0.16,0.1708
-0.41,-1.22,-0.27,17.51,-66.06,38.47,-4.69,-4.39,-18.46,-1.19,0.31,0.1,0.1712
-0.34,-0.89,-0.27,-26.27,-51.16,-29.28,-3.81,-4.69,-17.87,-1.11,0.35,0.12,0.1716
-0.24,-1.03,-0.34,-2.33,5.71,-37.48,-3.81,-4.69,-18.16,-1.19,0.21,-0.05,0.172
-0.58,-0.68,-0.14,-68.37,-91.3,-85.3,-3.81,-5.86,-19.63,-0.85,0.7,0.61,0.1724
0.12,-0.91,-0.49,-73.41,177.78,-20.51,-3.22,-5.57,-20.8,-1.07,-0.11,-0.46,0.1728
0.11,-0.76,-0.49,-9.64,18.95,-0.51,-3.81,-6.45,-20.51,-0.98,-0.12,-0.56,0.1732
-0.1,-0.96,-0.44,55.32,-10.21,27.8,-4.1,-6.74,-19.92,-1.13,0.1,-0.28,0.1736
-0.17,-0.98,-0.42,3.58,-28.88,-19.89,-3.22,-7.03,-19.04,-1.14,0.16,-0.23,0.174
0.09,-0.89,-0.43,32.55,-3.94,-3.0,-3.52,-7.03,-19.04,-1.11,-0.09,-0.52,0.1744
-0.04,-0.97,-0.29,15.53,-10.02,-1.44,-3.52,-7.62,-19.34,-1.28,0.04,-0.37,0.1748
-0.09,-0.95,-0.32,8.77,-27.46,-25.17,-3.52,-7.91,-18.46,-1.24,0.09,-0.36,0.1752
-0.01,-0.96,-0.33,3.1,-32.63,-22.94,-2.93,-8.2,-18.46,-1.24,0.01,-0.46,0.1756
0.01,-0.96,-0.34,9.09,-24.02,-36.81,-3.81,-8.79,-18.46,-1.23,-0.01,-0.51,0.176
0.13,-0.95,-0.3,27.82,-9.03,-9.96,-3.22,-9.08,-17.87,-1.24,-0.13,-0.66,0.1764
-0.0,-0.91,-0.27,15.97,-11.91,-2.58,-3.22,-9.38,-17.87,-1.28,0.0,-0.52,0.1768
0.04,-0.96,-0.25,14.45,-6.04,-7.03,-3.52,-9.38,-17.58,-1.31,-0.04,-0.57,0.1772
0.06,-0.96,-0.28,-19.27,-31.65,-15.18,-3.81,-9.96,-18.16,-1.28,-0.06,-0.61,0.1776
-0.41,-0.8,-0.43,-10.09,-143.14,-30.81,-3.22,-9.96,-18.75,-0.94,0.42,-0.1,0.178
0.17,-0.37,-0.24,-1.67,-6.42,36.3,-4.1,-10.25,-18.46,-0.9,-0.37,-1.11,0.1784
0.34,-0.57,-0.24,30.63,70.97,29.06,-3.52,-10.25,-17.58,-0.94,-0.5,-1.22,0.1788
2.0,-0.86,-0.52,58.4,249.99,245.14,-3.52,-9.67,-16.7,-0.39,-1.11,-1.76,0.1793
0.73,-1.03,-0.35,58.45,132.47,51.2,-3.52,-9.08,-15.82,-0.91,-0.59,-1.32,0.1797
-0.61,-0.82,0.11,17.28,47.62,-28.24,-4.1,-8.2,-15.53,-0.92,0.64,0.23,0.18
-0.22,-0.79,-0.34,-59.73,14.78,-19.19,-3.52,-8.5,-15.53,-1.1,0.25,-0.31,0.1804
0.69,-1.57,-0.72,91.42,76.61,95.18,-4.1,-8.2,-16.41,-1.0,-0.38,-1.04,0.1809
-0.61,-1.01,0.25,4.69,-9.19,-13.89,-3.52,-7.91,-15.53,-0.99,0.53,0.09,0.1813
-0.14,-0.91,-0.25,24.24,16.08,-25.15,-3.81,-7.62,-14.94,-1.26,0.15,-0.36,0.1816
0.06,-0.96,-0.18,25.73,23.42,-13.92,-3.81,-7.91,-14.06,-1.37,-0.06,-0.61,0.1821
-0.02,-0.91,-0.01,12.47,2.64,-1.35,-4.1,-7.91,-14.06,-1.55,0.02,-0.5,0.1825
-0.07,-0.81,-0.17,4.59,-13.09,1.14,-3.52,-7.62,-13.77,-1.35,0.08,-0.45,0.1829
-0.0,-0.98,-0.11,10.41,-2.66,27.56,-3.81,-7.62,-14.06,-1.46,0.0,-0.51,0.1833
-0.08,-1.04,-0.06,-5.11,-2.16,15.18,-4.1,-7.62,-14.36,-1.47,0.08,-0.42,0.1837
-0.21,-0.89,-0.09,-4.27,2.05,5.09,-3.81,-7.32,-14.06,-1.32,0.23,-0.27,0.184
-0.11,-0.88,-0.11,6.32,8.22,6.23,-3.81,-7.62,-14.06,-1.39,0.13,-0.39,0.1844
0.04,-0.94,-0.08,15.45,33.33,17.12,-4.1,-6.74,-14.65,-1.48,-0.04,-0.49,0.1849
-0.07,-0.93,-0.07,-2.54,48.75,20.66,-3.81,-6.45,-14.65,-1.47,0.07,-0.35,0.1852
-0.09,-1.46,-0.32,29.35,57.04,57.88,-4.39,-5.27,-14.06,-1.35,0.06,-0.32,0.1856
-0.1,-0.89,-0.2,-71.19,-41.0,44.66,-3.52,-5.27,-15.82,-1.32,0.11,-0.23,0.186
-0.19,-1.09,-0.17,13.92,-24.83,7.0,-3.52,-4.69,-16.11,-1.34,0.17,-0.12,0.1864
-0.24,-0.89,-0.37,39.95,0.16,-7.64,-3.52,-5.57,-15.53,-1.11,0.25,-0.12,0.1868
0.07,-0.87,-0.31,-58.4,27.82,-250.0,-3.52,-5.86,-15.82,-1.22,-0.07,-0.49,0.1872
-0.2,-1.1,-0.22,-7.29,22.17,-66.31,-3.52,-5.86,-16.99,-1.31,0.17,-0.17,0.1876
-0.18,-0.87,-0.2,-28.08,-8.49,-5.8,-3.52,-6.74,-17.87,-1.27,0.2,-0.17,0.188
-0.04,-0.87,-0.33,11.01,17.2,64.41,-3.22,-5.86,-17.58,-1.2,0.05,-0.31,0.1884
-0.1,-0.86,-0.29,-5.3,50.31,28.28,-3.81,-5.86,-17.58,-1.23,0.11,-0.24,0.1888
-0.28,-1.04,-0.25,40.6,10.86,105.98,-4.1,-3.52,-17.29,-1.22,0.26,0.07,0.1892
-0.23,-0.65,-0.63,-0.9,-0.43,-75.5,-4.39,-3.22,-17.29,-0.77,0.25,0.12,0.1896
-0.29,-0.8,-0.3,-81.81,-21.23,-74.45,-4.1,-5.57,-18.16,-1.09,0.33,0.04,0.19
-0.06,-0.95,-0.36,-11.62,-32.84,-91.63,-3.81,-7.32,-18.75,-1.21,0.05,-0.36,0.1905
0.05,-1.04,-0.45,-3.68,-67.31,-132.28,-3.52,-9.08,-18.75,-1.16,-0.05,-0.57,0.1909
0.01,-0.77,-0.39,-22.08,-122.56,-34.11,-3.22,-10.55,-19.04,-1.1,-0.01,-0.6,0.1913
-0.31,-0.55,-0.25,-31.54,-104.93,-64.3,-3.22,-10.84,-19.63,-0.94,0.47,-0.05,0.1918
0.36,-1.02,-0.54,27.82,-29.48,0.14,-3.52,-11.13,-19.34,-1.0,-0.31,-0.99,0.1922
0.17,-0.96,-0.33,10.22,-69.34,33.04,-3.52,-10.25,-18.75,-1.2,-0.17,-0.74,0.1926
-0.09,-0.87,-0.29,-14.06,-35.47,4.78,-3.22,-10.84,-19.63,-1.23,0.1,-0.45,0.193
0.09,-0.85,-0.32,4.36,4.57,16.58,-3.81,-10.84,-20.21,-1.2,-0.1,-0.67,0.1934
0.14,-0.9,-0.33,5.82,6.27,-3.26,-3.52,-11.13,-19.92,-1.19,-0.15,-0.73,0.1938
0.1,-0.99,-0.42,24.52,7.73,-9.09,-3.22,-10.55,-18.16,-1.16,-0.09,-0.7,0.1942
0.02,-0.92,-0.32,-1.43,-4.41,-4.97,-3.22,-10.25,-19.34,-1.23,-0.02,-0.56,0.1946
0.07,-0.93,-0.37,6.62,0.29,-0.38,-3.22,-11.13,-18.75,-1.18,-0.07,-0.68,0.1949
0.19,-0.96,-0.34,4.39,4.85,4.72,-3.22,-10.84,-19.04,-1.19,-0.18,-0.78,0.1953
0.09,-0.93,-0.34,10.85,-4.62,-3.3,-2.93,-10.55,-18.75,-1.21,-0.09,-0.66,0.1957
0.13,-1.0,-0.32,6.68,-0.91,2.2,-3.52,-10.84,-18.46,-1.24,-0.13,-0.72,0.1961
0.08,-0.94,-0.35,4.1,-2.66,-1.5,-3.81,-10.25,-19.34,-1.2,-0.08,-0.64,0.1965
0.15,-0.98,-0.33,6.29,3.59,4.04,-3.22,-10.84,-19.34,-1.22,-0.14,-0.72,0.1969
0.16,-1.01,-0.34,6.17,3.34,2.93,-3.22,-10.84,-18.75,-1.21,-0.15,-0.74,0.1973
0.12,-0.97,-0.33,5.11,-2.08,0.53,-3.81,-9.96,-18.46,-1.22,-0.11,-0.68,0.1977
0.06,-0.91,-0.3,-2.22,-13.31,-1.9,-3.52,-10.55,-18.46,-1.24,-0.07,-0.64,0.1981
0.0,-0.87,-0.32,-11.83,-31.8,7.58,-3.22,-9.67,-19.34,-1.22,-0.01,-0.52,0.1985
0.01,-1.0,-0.31,-1.15,-19.45,24.64,-3.22,-9.96,-19.63,-1.27,-0.01,-0.53,0.1989
0.03,-0.98,-0.32,6.52,-1.56,7.9,-3.22,-9.67,-18.46,-1.26,-0.03,-0.56,0.1993
0.0,-0.94,-0.33,1.33,-1.53,-3.33,-3.52,-10.25,-19.63,-1.23,-0.0,-0.54,0.1997
-0.0,-0.89,-0.3,2.28,-0.18,-2.53,-3.22,-9.38,-18.46,-1.25,0.0,-0.51,0.2001
0.03,-0.9,-0.33,-5.58,-6.33,11.13,-3.52,-9.67,-18.75,-1.22,-0.03,-0.57,0.2005
0.01,-0.95,-0.33,-5.07,-4.11,25.41,-2.93,-9.08,-19.34,-1.23,-0.01,-0.49,0.2009
-0.08,-0.82,-0.35,-35.26,-10.97,29.63,-3.52,-8.2,-19.63,-1.15,0.09,-0.36,0.2013
-0.1,-0.75,-0.33,-58.22,-12.37,86.69,-3.52,-6.15,-20.8,-1.14,0.12,-0.2,0.2017
-0.17,-1.02,-0.29,-23.82,-7.12,7.84,-3.52,-5.27,-22.27,-1.25,0.16,-0.08,0.2029
-0.18,-0.98,-0.49,-1.8,18.65,-52.85,-3.81,-6.15,-21.97,-1.08,0.17,-0.13,0.2038
-0.25,-1.17,-0.53,31.68,13.01,-85.37,-3.81,-8.2,-21.39,-1.1,0.19,-0.21,0.2042
0.45,-0.27,-0.37,-249.13,16.37,249.99,-3.22,-8.5,-21.68,-0.44,-0.77,-1.52,0.2046
-0.42,-0.62,-0.37,-11.08,-22.83,-128.2,-3.81,-9.38,-21.97,-0.83,0.53,0.2,0.205
0.04,-0.81,-0.52,17.99,30.08,-27.56,-3.81,-10.25,-22.27,-1.0,-0.04,-0.6,0.2054
-0.45,-1.98,-0.53,54.95,45.57,-135.99,-4.1,-12.89,-20.51,-1.23,0.22,-0.39,0.2058
0.31,-0.82,-0.46,-3.65,5.77,26.25,-4.1,-13.48,-20.21,-0.98,-0.32,-1.08,0.2062
0.23,-0.97,-0.49,20.42,-34.28,-57.85,-3.81,-13.18,-19.92,-1.06,-0.21,-0.93,0.2066
0.33,-0.96,-0.4,7.44,16.88,-11.54,-4.1,-13.77,-20.21,-1.07,-0.31,-1.04,0.207
0.36,-0.87,-0.43,-4.61,-2.71,24.12,-4.69,-13.48,-20.21,-1.0,-0.35,-1.12,0.2074
0.3,-0.94,-0.4,5.6,7.76,-15.89,-4.98,-14.06,-20.51,-1.08,-0.28,-1.03,0.2078
0.26,-0.88,-0.39,-35.31,-27.95,92.69,-4.1,-12.01,-21.09,-1.08,-0.27,-0.92,0.2082
0.11,-1.16,-0.5,0.96,8.6,2.66,-4.39,-11.13,-21.39,-1.15,-0.09,-0.66,0.2086
0.26,-0.94,-0.48,-13.82,-4.53,-4.07,-4.39,-10.84,-21.97,-1.04,-0.24,-0.84,0.209
0.03,-0.82,-0.45,-29.44,-11.31,-13.79,-4.39,-10.84,-22.27,-1.07,-0.03,-0.59,0.2094
0.12,-0.93,-0.49,-27.83,5.87,-11.58,-4.39,-11.43,-22.56,-1.07,-0.11,-0.7,0.2098
0.22,-0.81,-0.53,-10.04,23.6,-38.3,-4.39,-12.89,-21.97,-0.95,-0.23,-0.95,0.2102
0.11,-0.95,-0.57,-0.85,12.2,-30.56,-4.39,-12.3,-22.56,-1.02,-0.1,-0.74,0.2106
0.39,-0.76,-0.54,5.78,10.41,-19.79,-4.98,-12.89,-21.97,-0.85,-0.4,-1.19,0.211
0.28,-0.89,-0.62,-14.95,-9.09,49.26,-4.69,-11.43,-22.27,-0.92,-0.25,-0.94,0.2114
0.2,-0.89,-0.61,4.07,-9.93,1.56,-4.69,-12.6,-23.44,-0.95,-0.19,-0.87,0.2119
0.26,-0.94,-0.49,-7.55,27.69,69.51,-4.1,-10.84,-23.14,-1.04,-0.24,-0.82,0.2123
0.0,-0.93,-0.67,-45.86,-58.95,162.03,-4.69,-9.08,-23.44,-0.95,-0.0,-0.51,0.2128
0.03,-0.62,-1.39,-198.66,-146.16,43.83,-4.1,-7.62,-26.37,-0.42,-0.02,-0.87,0.2132
0.01,-0.74,-0.81,-59.56,-21.82,-41.5,-6.15,-7.62,-27.25,-0.74,-0.01,-0.53,0.2136
-0.02,-0.65,-0.83,35.22,30.85,-30.82,-5.57,-8.5,-26.95,-0.66,0.02,-0.58,0.214
-0.02,-0.87,-0.94,36.13,-1.83,-57.6,-4.98,-8.5,-25.78,-0.75,0.02,-0.52,0.2144
0.16,-0.79,-0.52,15.91,34.11,-41.35,-4.69,-9.67,-24.9,-0.97,-0.17,-0.71,0.2148
0.13,-0.75,-0.82,26.7,-88.52,-104.9,-5.57,-11.13,-25.2,-0.73,-0.12,-0.88,0.2152
0.12,-0.91,-0.7,-51.77,39.56,29.28,-5.57,-10.84,-25.78,-0.91,-0.11,-0.7,0.2156
0.21,-0.83,-0.85,73.8,84.45,-89.57,-5.27,-12.6,-23.73,-0.76,-0.18,-1.0,0.2161
0.33,-0.73,-0.69,23.07,18.28,-8.16,-5.57,-13.77,-23.73,-0.76,-0.32,-1.18,0.2165
0.24,-0.83,-0.72,41.6,29.22,-16.43,-5.27,-13.48,-23.44,-0.83,-0.22,-1.02,0.2169
0.38,-0.82,-0.7,-19.58,-16.49,42.87,-4.69,-13.18,-23.44,-0.8,-0.34,-1.13,0.2173
0.27,-0.86,-0.71,-26.17,-3.83,31.11,-4.69,-12.3,-23.14,-0.85,-0.24,-0.98,0.2177
0.36,-0.77,-0.59,-11.05,1.56,19.87,-4.39,-13.48,-23.14,-0.84,-0.36,-1.13,0.2181
0.33,-0.85,-0.59,43.63,38.91,-27.5,-4.69,-12.89,-21.97,-0.9,-0.31,-1.07,0.2185
0.35,-0.86,-0.82,44.91,-67.2,-25.94,-4.1,-13.48,-21.97,-0.76,-0.29,-1.13,0.2189
0.36,-0.86,-0.69,-1.99,3.85,6.78,-4.39,-13.48,-22.56,-0.84,-0.31,-1.1,0.2193
0.36,-0.86,-0.66,-24.16,38.68,17.07,-4.69,-12.89,-22.85,-0.85,-0.32,-1.09,0.2197
0.34,-0.84,-0.71,-2.11,13.95,-12.65,-5.27,-12.6,-22.27,-0.82,-0.3,-1.12,0.2201
0.36,-0.78,-0.69,-5.49,-23.54,11.07,-4.98,-13.48,-23.14,-0.79,-0.33,-1.16,0.2205
0.43,-0.78,-0.55,39.66,-67.37,-11.96,-6.15,-13.18,-23.73,-0.84,-0.42,-1.22,0.2209
0.5,-0.89,-0.83,-195.34,25.11,249.99,-6.15,-10.25,-25.78,-0.74,-0.39,-1.14,0.2213
0.16,-1.1,-0.98,-13.18,53.61,-62.23,-6.74,-12.3,-26.95,-0.84,-0.11,-0.81,0.2217
0.05,-1.31,-0.85,27.85,-65.74,-57.79,-6.74,-11.13,-26.37,-0.99,-0.03,-0.59,0.2221
-0.15,-0.01,-0.68,-56.96,29.46,-125.4,-7.32,-11.72,-28.12,-0.02,0.22,-2.46,0.2225
-0.09,-0.36,-0.94,57.11,-86.24,-7.87,-6.74,-12.01,-26.37,-0.36,0.09,-1.23,0.2229
1.22,-1.01,-0.95,85.68,92.46,46.05,-6.15,-12.89,-24.9,-0.58,-0.72,-1.55,0.2234
0.18,-0.86,-0.86,61.95,-102.56,-5.58,-5.86,-12.89,-24.9,-0.77,-0.15,-0.95,0.2238
0.46,-0.63,-0.71,91.09,28.34,24.2,-4.69,-13.77,-22.27,-0.64,-0.45,-1.36,0.2242
0.48,-0.89,-0.36,76.91,43.69,98.75,-4.69,-11.43,-21.97,-0.98,-0.46,-1.13,0.2246
0.82,-0.99,-0.53,79.26,48.27,128.4,-4.1,-11.13,-19.92,-0.79,-0.63,-1.38,0.225
0.43,-0.82,-0.43,65.64,89.46,45.85,-3.22,-9.96,-17.58,-0.93,-0.44,-1.14,0.2254
-0.15,-0.95,-0.09,65.15,97.49,62.4,-3.22,-9.08,-16.7,-1.39,0.15,-0.36,0.2258
0.04,-0.99,-0.22,27.78,148.87,99.07,-3.52,-7.32,-16.99,-1.35,-0.04,-0.47,0.2262
-0.02,-1.01,-0.3,8.66,129.13,57.95,-3.52,-5.57,-15.82,-1.28,0.02,-0.36,0.2266
-0.38,-0.86,-0.45,-6.46,43.49,-91.35,-3.52,-5.86,-17.87,-0.97,0.38,0.08,0.227
-0.11,-1.06,-0.32,-27.94,75.11,-54.06,-2.93,-7.03,-18.16,-1.26,0.1,-0.3,0.2273
-0.04,-0.93,-0.27,-43.4,117.49,-19.44,-3.22,-7.62,-19.04,-1.28,0.04,-0.38,0.2278
-0.01,-0.86,-0.27,-35.25,101.07,6.18,-3.22,-7.32,-19.34,-1.27,0.01,-0.38,0.2282
0.09,-0.84,-0.39,-20.29,90.39,9.97,-3.22,-7.32,-20.51,-1.12,-0.09,-0.51,0.2285
0.27,-0.89,-0.38,-33.41,57.0,9.77,-3.52,-6.74,-20.21,-1.09,-0.27,-0.7,0.2289
0.23,-0.85,-0.71,25.51,-4.2,-22.43,-2.93,-7.32,-20.51,-0.85,-0.2,-0.75,0.2293
-0.05,-0.92,-0.88,230.23,-161.58,-120.19,-2.93,-10.55,-16.41,-0.81,0.04,-0.78,0.2298
1.08,-0.72,-0.09,207.31,41.03,-7.42,-4.39,-11.72,-12.01,-0.59,-0.98,-1.88,0.2302
0.28,-0.66,0.54,100.03,-60.76,12.11,-5.57,-11.43,-9.67,-0.83,-0.32,-1.55,0.2306
0.31,-0.66,0.11,49.0,-1.02,40.99,-6.15,-11.43,-8.79,-1.11,-0.43,-1.56,0.231
0.21,-0.92,0.02,67.95,-37.19,14.63,-7.32,-11.72,-7.62,-1.35,-0.22,-1.34,0.2314
0.73,-0.79,0.6,25.07,26.31,18.36,-7.32,-10.84,-6.45,-0.7,-0.63,-2.04,0.2318
0.36,-0.79,0.33,-9.69,3.58,-4.97,-7.91,-11.13,-7.62,-1.01,-0.4,-1.72,0.2322
0.33,-0.73,0.11,1.17,9.1,8.64,-6.74,-10.84,-6.74,-1.12,-0.42,-1.68,0.2325
0.38,-0.78,0.16,13.28,11.48,-10.03,-7.91,-11.13,-7.32,-1.09,-0.44,-1.72,0.2329
0.42,-0.76,0.37,2.83,19.05,-10.02,-7.03,-10.25,-6.74,-0.94,-0.46,-1.81,0.2333
0.24,-0.77,0.39,-25.02,27.91,-6.1,-7.03,-10.55,-7.03,-1.04,-0.27,-1.59,0.2337
0.32,-0.68,0.21,-67.64,44.95,-42.71,-6.74,-9.38,-8.2,-1.06,-0.42,-1.58,0.2341
0.39,-0.4,0.12,-204.66,123.27,12.7,-4.39,-7.62,-12.3,-0.78,-0.75,-1.6,0.2345
0.55,-0.41,0.36,-204.31,115.62,60.08,-3.22,-6.15,-14.06,-0.56,-0.78,-1.55,0.2349
-0.01,-0.8,-0.03,29.98,23.84,22.67,-3.81,-6.15,-14.06,-1.53,0.01,-0.4,0.2353
-0.07,-1.21,-0.32,11.83,-2.08,32.13,-4.39,-5.27,-14.36,-1.31,0.06,-0.33,0.2357
0.08,-0.91,0.18,-47.09,-46.91,30.78,-3.52,-4.69,-14.94,-1.36,-0.08,-0.41,0.2361
0.02,-1.12,-0.26,-50.11,-166.95,-37.64,-3.22,-6.74,-14.94,-1.34,-0.02,-0.47,0.2365
0.04,-0.96,-0.37,-23.22,-153.13,-65.19,-3.52,-7.32,-15.82,-1.2,-0.04,-0.55,0.2369
0.17,-0.88,-0.38,-24.44,-168.59,-39.37,-3.81,-8.2,-16.7,-1.13,-0.18,-0.75,0.2374
0.14,-1.03,-0.32,-8.83,-163.87,-25.33,-3.81,-8.79,-17.58,-1.24,-0.13,-0.66,0.2378
0.5,-1.18,-0.5,-15.79,-147.25,3.69,-3.52,-9.38,-18.16,-1.03,-0.37,-1.0,0.2382
0.1,-0.91,-0.52,11.88,-166.35,-48.88,-3.52,-9.67,-18.75,-1.05,-0.09,-0.7,0.2386
-0.38,-0.83,-0.11,23.0,-160.15,-23.16,-3.52,-9.96,-19.04,-1.12,0.43,-0.06,0.239
-0.13,-1.02,-0.33,8.77,-89.55,1.58,-4.1,-9.96,-19.04,-1.24,0.12,-0.41,0.2394
0.22,-1.12,-0.54,145.09,100.68,29.95,-3.81,-9.38,-16.41,-1.09,-0.18,-0.83,0.2398
0.0,-0.68,0.12,134.35,249.99,133.08,-4.1,-6.15,-14.06,-1.39,-0.0,-0.44,0.2402
-0.5,-1.04,-0.02,-62.87,93.43,-42.24,-4.1,-5.27,-15.23,-1.12,0.45,0.15,0.2406
-0.0,-0.73,-0.55,15.77,36.72,-55.94,-3.52,-5.86,-15.53,-0.93,0.0,-0.51,0.241
0.09,-0.8,-0.06,17.88,31.29,-33.1,-3.52,-7.32,-15.23,-1.43,-0.11,-0.58,0.2414
-0.11,-1.0,0.21,30.86,-30.0,-70.84,-3.81,-7.62,-14.94,-1.34,0.1,-0.4,0.2418
0.3,-0.87,-0.03,-8.18,33.08,-25.61,-3.22,-7.91,-14.06,-1.23,-0.33,-0.93,0.2422
0.29,-0.91,-0.19,22.08,-14.76,49.85,-4.1,-7.91,-14.65,-1.21,-0.3,-0.9,0.2426
0.54,-0.95,0.15,-32.5,51.48,163.76,-4.98,-4.98,-15.23,-1.04,-0.51,-1.05,0.243
-1.16,-1.08,-0.32,74.78,-85.06,-119.98,-4.39,-4.39,-14.36,-0.73,0.8,0.91,0.2434
-0.34,-0.41,-0.13,8.49,-5.64,-9.49,-4.39,-3.81,-14.36,-0.84,0.67,0.69,0.2438
-0.91,-1.81,0.07,-74.02,-134.45,115.61,-6.45,-2.05,-15.82,-1.1,0.47,0.47,0.2442
-0.43,-0.08,0.18,-114.91,-14.81,-10.32,-4.98,-1.17,-16.7,-0.16,1.15,1.81,0.2446
-0.3,-1.03,-0.15,-6.32,-50.19,-7.81,-5.27,-1.76,-17.87,-1.25,0.28,0.21,0.245
0.31,-0.77,-0.28,32.52,-5.96,10.69,-5.27,-2.34,-17.29,-1.08,-0.36,-0.64,0.2454
0.52,-1.85,-0.28,114.46,233.21,91.71,-4.69,-2.93,-17.87,-1.26,-0.27,-0.49,0.2458
-1.7,-0.89,-0.17,31.88,-250.0,-104.16,-4.98,-3.81,-15.82,-0.48,1.08,1.52,0.2462
0.83,-0.6,-0.33,-109.66,161.12,54.83,-3.81,-4.98,-17.87,-0.59,-0.88,-1.51,0.2466
0.57,-0.76,-0.8,11.52,-109.02,-226.46,-3.81,-9.08,-17.87,-0.66,-0.48,-1.32,0.247
0.02,-1.65,-0.31,71.31,60.54,149.6,-3.52,-4.98,-18.16,-1.39,-0.01,-0.29,0.2475
-0.71,-1.26,-0.2,56.72,45.65,-76.48,-4.69,-3.52,-17.58,-1.04,0.51,0.41,0.2479
-1.0,-0.93,-0.36,41.05,-115.81,-127.34,-4.39,-3.81,-18.16,-0.72,0.79,0.97,0.2483
-0.78,-0.79,-0.3,5.83,-16.0,-53.7,-4.98,-2.93,-17.87,-0.76,0.74,0.97,0.2487
-0.42,-0.87,-0.22,-47.9,-0.29,-59.59,-4.39,-3.81,-18.75,-1.07,0.44,0.3,0.2491
0.02,-1.17,-0.19,-43.09,62.93,-53.41,-4.39,-4.69,-19.92,-1.41,-0.02,-0.26,0.2495
0.23,-0.96,-0.26,-13.45,104.85,-10.91,-4.1,-5.57,-20.51,-1.22,-0.23,-0.56,0.2499
0.09,-0.96,-0.56,-17.01,-46.75,-93.84,-3.81,-5.86,-20.8,-1.04,-0.08,-0.45,0.2503
0.57,-0.85,-0.26,-23.86,55.69,-80.77,-4.1,-7.62,-20.8,-0.94,-0.57,-1.13,0.306
0.58,-1.02,-0.02,93.07,122.58,84.09,-3.22,-8.2,-18.16,-1.05,-0.52,-1.08,0.3797
0.52,-0.83,-0.42,136.86,-7.57,47.92,-3.81,-8.2,-16.11,-0.89,-0.51,-1.22,0.4534
0.17,-0.84,-0.19,92.42,-40.54,109.89,-4.69,-6.45,-14.65,-1.28,-0.19,-0.68,0.5272
-0.04,-0.91,-0.13,17.39,-63.76,27.73,-4.39,-6.15,-14.06,-1.42,0.04,-0.39,0.601
-0.08,-0.92,0.04,-25.58,1.23,31.05,-4.69,-6.15,-14.94,-1.47,0.09,-0.31,0.6746
0.41,-0.97,0.1,-29.39,46.71,90.44,-4.69,-3.81,-15.53,-1.16,-0.4,-0.77,0.7484
-0.07,-1.02,0.04,-5.12,59.56,9.45,-4.39,-3.81,-16.11,-1.49,0.07,-0.16,0.8185
-0.0,-0.82,-0.23,23.08,79.88,-48.47,-4.1,-4.39,-16.11,-1.3,0.0,-0.29,0.8959
-0.12,-0.84,0.04,-49.71,27.07,-35.05,-3.81,-5.57,-16.41,-1.43,0.14,-0.2,0.9696
-0.12,-0.93,-0.25,-49.28,-117.42,-191.38,-2.93,-9.08,-17.87,-1.28,0.12,-0.38,1.0435
0.64,-0.89,-0.3,11.41,-37.22,-61.01,-3.81,-11.43,-18.46,-0.9,-0.6,-1.35,1.1171
0.64,-0.98,-0.18,7.06,43.37,34.15,-3.22,-11.43,-17.87,-0.98,-0.57,-1.29,1.1908
0.43,-1.02,-0.35,39.79,-44.97,35.57,-3.22,-11.43,-17.58,-1.07,-0.38,-1.08,1.2647
0.69,-0.88,-0.26,17.66,-25.57,34.76,-3.81,-12.3,-17.87,-0.88,-0.64,-1.43,1.3383
0.77,-0.83,-0.18,26.57,78.12,134.19,-3.52,-9.67,-16.99,-0.81,-0.74,-1.47,1.4122
0.38,-0.9,-0.14,19.74,82.89,102.08,-3.52,-7.62,-16.99,-1.15,-0.4,-0.93,1.4857
0.25,-0.95,-0.1,-12.5,46.84,17.94,-3.81,-6.45,-16.99,-1.29,-0.26,-0.67,1.5595
0.05,-0.72,-0.08,-56.85,31.03,-19.49,-3.52,-7.03,-17.58,-1.44,-0.07,-0.47,1.6332
0.36,-1.06,-0.18,-36.09,18.95,4.36,-3.52,-7.91,-18.46,-1.21,-0.33,-0.81,1.7069
0.62,-0.94,-0.29,5.1,-3.87,31.15,-3.81,-8.2,-18.46,-0.94,-0.56,-1.18,1.7806
0.36,-0.97,-0.25,26.86,-3.04,29.42,-3.52,-7.62,-18.46,-1.15,-0.34,-0.84,1.8544
0.03,-0.97,-0.16,11.81,-2.45,13.41,-3.52,-6.74,-18.16,-1.41,-0.03,-0.4,1.9282
0.24,-0.93,-0.24,11.87,13.02,13.44,-3.81,-6.45,-18.16,-1.22,-0.24,-0.65,2.0018
0.1,-0.98,-0.23,2.67,8.67,3.47,-3.81,-5.86,-18.16,-1.32,-0.1,-0.44,2.0717
0.11,-0.92,-0.18,-1.97,3.52,4.21,-3.81,-5.27,-18.16,-1.35,-0.12,-0.43,2.1456
0.12,-0.97,-0.22,3.65,4.35,-0.17,-3.81,-6.15,-17.29,-1.32,-0.12,-0.5,2.2192
0.15,-0.96,-0.22,2.65,-1.69,4.93,-3.52,-6.45,-18.16,-1.3,-0.15,-0.53,2.2929
0.1,-0.95,-0.2,2.93,-18.41,-7.32,-3.52,-5.57,-18.16,-1.34,-0.11,-0.43,2.3669
0.17,-0.96,-0.22,0.14,-5.48,3.49,-2.93,-6.15,-18.16,-1.29,-0.17,-0.53,2.4403
0.19,-0.94,-0.23,5.74,-1.58,0.93,-4.1,-6.15,-18.75,-1.26,-0.2,-0.57,2.5141
0.2,-0.91,-0.22,2.76,-3.99,4.16,-3.52,-5.86,-18.75,-1.25,-0.21,-0.56,2.5879
0.17,-0.98,-0.25,4.25,9.06,14.56,-4.69,-5.57,-19.34,-1.28,-0.17,-0.5,2.6615
0.19,-0.92,-0.21,3.97,-0.11,6.09,-3.52,-5.86,-18.75,-1.27,-0.2,-0.56,2.7354
0.28,-0.94,-0.27,3.33,20.25,25.79,-3.52,-4.98,-19.04,-1.18,-0.28,-0.61,2.809
0.21,-0.99,-0.23,2.15,-5.27,-10.22,-4.39,-5.86,-18.46,-1.26,-0.21,-0.58,2.8827
0.27,-0.9,-0.22,0.11,4.13,8.26,-3.52,-5.57,-19.63,-1.2,-0.28,-0.63,2.9564
0.18,-0.96,-0.28,2.36,-7.97,-0.44,-3.81,-4.98,-19.63,-1.23,-0.18,-0.48,3.0302
0.07,-1.02,-0.21,0.56,-13.53,-5.66,-3.81,-5.27,-19.92,-1.36,-0.07,-0.35,3.1039
0.05,-1.06,-0.25,-0.97,-12.52,-2.86,-3.81,-3.81,-19.92,-1.34,-0.05,-0.25,3.1776
0.2,-0.94,-0.14,-0.15,3.5,-0.85,-4.39,-5.27,-20.21,-1.32,-0.21,-0.51,3.2514
0.14,-0.87,-0.2,-1.98,-1.93,8.64,-3.52,-5.27,-20.51,-1.3,-0.15,-0.44,3.325
0.11,-0.96,-0.2,-4.53,4.35,12.75,-3.22,-4.98,-21.39,-1.34,-0.11,-0.36,3.3988
0.23,-0.96,-0.22,5.22,0.18,-15.97,-3.22,-5.27,-22.27,-1.25,-0.23,-0.51,3.4725
0.08,-0.97,-0.16,6.85,3.91,-24.67,-3.22,-5.27,-21.68,-1.38,-0.09,-0.34,3.5462
0.12,-0.92,-0.24,4.01,-4.23,-10.91,-3.81,-5.27,-21.97,-1.29,-0.12,-0.39,3.6199
0.03,-1.12,-0.16,3.94,-9.24,-15.4,-2.64,-5.27,-22.85,-1.42,-0.03,-0.26,3.6937
0.1,-0.98,-0.22,22.62,-16.46,-43.22,-2.05,-5.57,-22.27,-1.33,-0.1,-0.36,3.7675
0.28,-0.73,-0.27,2.08,13.18,27.73,-2.34,-5.86,-23.14,-1.08,-0.35,-0.69,3.8411
0.0,-1.05,-0.26,-2.04,-0.31,3.14,-2.05,-4.98,-23.14,-1.32,-0.0,-0.23,3.9148
0.23,-0.89,-0.19,1.34,13.55,15.59,-2.05,-5.27,-24.32,-1.24,-0.25,-0.5,3.9885
0.25,-0.92,-0.22,2.27,-0.47,0.35,-2.34,-4.98,-25.2,-1.22,-0.26,-0.49,4.0623
0.18,-0.93,-0.31,4.08,-9.81,-5.49,-2.34,-5.57,-26.66,-1.21,-0.18,-0.42,4.136
0.21,-1.02,-0.26,0.59,2.7,-3.82,-2.93,-5.27,-25.78,-1.26,-0.2,-0.43,4.2058
0.12,-1.1,-0.21,-3.31,0.77,-13.3,-2.93,-5.86,-27.25,-1.35,-0.11,-0.34,4.2835
0.27,-0.91,-0.2,1.93,5.66,5.94,-1.76,-6.15,-26.95,-1.22,-0.28,-0.55,4.3532
0.06,-0.93,-0.16,4.27,-8.54,-14.11,-2.93,-5.86,-27.25,-1.39,-0.07,-0.29,4.427
0.12,-0.85,-0.22,-2.37,-16.93,1.59,-2.93,-7.03,-28.42,-1.28,-0.14,-0.41,4.5007
0.2,-0.9,-0.2,-1.46,-2.46,9.57,-2.93,-6.45,-28.42,-1.26,-0.21,-0.47,4.5744
0.17,-0.93,-0.19,3.88,-8.52,-10.7,-3.81,-6.45,-29.59,-1.3,-0.18,-0.42,4.6482
0.25,-1.02,-0.18,3.0,10.65,11.81,-4.1,-7.32,-29.59,-1.28,-0.24,-0.52,4.7219
0.17,-1.0,-0.26,6.76,-0.74,-16.91,-4.39,-7.32,-30.18,-1.27,-0.16,-0.44,4.7957
0.0,-1.14,-0.24,2.78,2.88,-29.66,-4.1,-7.62,-31.05,-1.36,-0.0,-0.26,4.8694
0.22,-0.89,-0.25,5.55,10.44,10.96,-4.39,-7.62,-31.64,-1.21,-0.23,-0.52,4.9431
0.11,-0.94,-0.29,2.38,7.41,16.41,-4.69,-7.91,-30.76,-1.25,-0.11,-0.4,5.0168
0.17,-0.88,-0.24,1.26,7.81,8.94,-4.98,-8.5,-31.93,-1.25,-0.19,-0.49,5.0906
0.19,-0.91,-0.24,6.72,2.79,3.0,-4.98,-8.2,-32.52,-1.24,-0.2,-0.49,5.1643
0.23,-0.96,-0.19,6.0,-1.22,-0.39,-5.57,-8.2,-32.52,-1.27,-0.23,-0.52,5.238
0.21,-0.92,-0.23,4.63,7.06,3.08,-6.74,-8.79,-33.4,-1.25,-0.22,-0.53,5.3118
0.23,-1.01,-0.22,2.18,-1.92,6.54,-6.74,-9.67,-33.98,-1.27,-0.22,-0.55,5.3854
-0.06,-1.09,-0.18,-3.03,-12.15,-33.78,-7.03,-9.67,-33.98,-1.39,0.06,-0.23,5.4593
0.34,-0.87,-0.11,7.1,10.41,21.42,-6.74,-9.38,-34.28,-1.18,-0.37,-0.73,5.5329
0.1,-0.91,-0.22,2.43,-10.04,6.47,-7.32,-9.08,-33.98,-1.31,-0.11,-0.4,5.6067
0.08,-0.97,-0.23,-0.92,-9.65,0.03,-6.74,-9.96,-35.16,-1.33,-0.08,-0.38,5.6804
0.23,-0.86,-0.17,6.7,9.78,13.31,-7.03,-9.96,-35.16,-1.25,-0.25,-0.59,5.7541
0.13,-0.92,-0.22,10.41,1.46,0.39,-8.2,-10.55,-34.86,-1.3,-0.13,-0.47,5.8279
0.18,-1.0,-0.11,6.76,12.66,-0.81,-8.5,-10.84,-35.74,-1.37,-0.17,-0.5,5.9015
0.18,-0.94,-0.19,5.78,0.99,-3.14,-7.91,-11.72,-36.91,-1.3,-0.18,-0.53,5.9753
0.07,-1.1,-0.18,6.27,-0.93,-13.68,-7.32,-12.6,-36.04,-1.39,-0.07,-0.42,6.049
0.18,-0.87,-0.19,7.92,-3.01,0.41,-7.91,-12.3,-36.91,-1.28,-0.2,-0.58,6.1227
-0.01,-1.0,-0.21,2.01,-17.87,-7.35,-9.38,-12.6,-36.91,-1.36,0.01,-0.34,6.1966
0.13,-0.87,-0.2,-1.4,-3.55,6.38,-9.08,-13.48,-37.5,-1.31,-0.14,-0.53,6.2702
0.17,-0.9,-0.2,2.65,-0.05,3.93,-8.5,-14.65,-37.5,-1.29,-0.18,-0.6,6.344
0.13,-0.94,-0.21,2.37,2.4,-1.59,-9.08,-15.53,-36.91,-1.31,-0.14,-0.58,6.4178
0.19,-0.93,-0.2,1.01,-0.04,4.79,-9.08,-15.82,-37.21,-1.28,-0.19,-0.65,6.4914
0.12,-1.0,-0.21,-3.59,-3.89,-0.77,-10.55,-16.41,-38.67,-1.33,-0.12,-0.57,6.5652
0.04,-1.09,-0.14,-0.63,-10.99,-14.68,-9.96,-16.99,-37.21,-1.44,-0.03,-0.48,6.6389
0.4,-0.86,-0.13,3.16,15.12,23.03,-10.84,-17.29,-37.21,-1.12,-0.43,-1.01,6.7126
-0.01,-0.89,-0.22,4.7,-6.58,-1.65,-9.96,-18.75,-37.21,-1.32,0.01,-0.49,6.7863
-0.01,-0.92,-0.23,2.13,-6.11,0.12,-10.55,-19.63,-37.5,-1.33,0.01,-0.51,6.8601
0.28,-0.92,-0.18,4.18,11.0,4.47,-9.96,-19.92,-36.91,-1.22,-0.29,-0.88,6.9299
0.03,-0.97,-0.18,7.45,13.15,-4.01,-10.84,-20.51,-36.33,-1.39,-0.03,-0.58,7.0076
0.21,-0.94,-0.11,9.76,-2.63,-1.05,-9.67,-21.97,-35.45,-1.32,-0.22,-0.84,7.0813
0.18,-1.0,-0.13,5.56,-13.47,-2.31,-11.13,-22.85,-35.45,-1.35,-0.18,-0.8,7.155
