Ax,Ay,Az,Gx,Gy,Gz,Mx,My,MZ,Roll,Pitch,Yaw,Time
0.18,0.94,-0.25,-5.0,-3.48,-156.07,-26.07,-40.43,-28.71,1.26,-0.18,-2.13,0.0017
0.15,1.03,-0.2,-18.86,-44.44,-197.93,-24.61,-35.45,-28.12,1.33,-0.15,-2.19,0.0023
-0.52,0.93,-0.13,-48.74,-59.57,-250.0,-23.14,-31.05,-27.54,1.05,0.51,-2.85,0.0029
-0.52,0.69,-0.09,23.23,-4.31,-143.87,-19.92,-29.0,-27.54,0.92,0.64,-2.99,0.0036
-0.6,0.47,-0.16,-18.4,9.66,-95.98,-17.87,-27.54,-28.12,0.65,0.88,3.03,0.0042
-0.82,0.41,-0.08,26.05,-25.36,-129.97,-14.94,-27.25,-27.25,0.47,1.1,2.76,0.0048
-0.84,0.28,-0.04,1.01,-7.64,-36.7,-13.48,-26.95,-27.83,0.32,1.25,2.49,0.0054
-0.84,0.27,-0.04,-6.68,-3.33,36.18,-15.23,-26.66,-27.83,0.32,1.25,2.52,0.006
-0.84,0.27,-0.05,-6.96,-7.94,54.63,-15.53,-26.66,-26.95,0.32,1.25,2.55,0.0066
-0.69,0.34,-0.04,-12.37,14.07,126.91,-17.87,-27.25,-27.54,0.46,1.11,2.77,0.0072
-0.79,0.48,-0.03,2.69,-3.28,90.3,-19.34,-28.12,-27.25,0.54,1.03,2.9,0.0078
-0.67,0.66,-0.02,12.54,-9.7,116.07,-21.09,-29.3,-27.25,0.78,0.79,-3.12,0.0084
-0.68,0.7,-0.04,4.48,6.05,16.46,-21.09,-30.18,-27.25,0.8,0.77,-3.08,0.009
-0.58,0.73,-0.06,6.23,6.59,50.41,-21.68,-30.47,-27.83,0.9,0.67,-3.0,0.0096
-0.57,0.78,-0.05,-6.85,0.98,52.07,-22.27,-31.35,-27.25,0.93,0.64,-2.95,0.0101
-0.57,0.78,-0.05,-3.43,-15.65,59.23,-24.02,-32.23,-26.37,0.94,0.63,-2.92,0.0106
-0.41,0.8,-0.05,15.82,36.59,103.68,-24.61,-34.28,-26.66,1.1,0.47,-2.76,0.0111
-0.33,0.91,-0.03,5.25,-0.51,64.57,-25.49,-35.45,-26.95,1.22,0.35,-2.64,0.0116
-0.28,0.93,-0.04,0.72,-7.86,38.45,-25.49,-36.04,-27.83,1.28,0.29,-2.58,0.0121
-0.24,0.94,-0.03,4.49,-4.48,9.21,-25.2,-36.62,-27.25,1.32,0.25,-2.52,0.0126
-0.19,0.93,-0.04,7.41,-9.16,17.41,-25.2,-36.91,-26.66,1.36,0.2,-2.46,0.0131
-0.17,1.0,-0.02,-6.86,2.77,59.82,-26.37,-38.38,-26.95,1.4,0.16,-2.4,0.0136
-0.1,0.98,-0.0,5.55,-4.44,56.02,-26.95,-38.67,-26.07,1.47,0.1,-2.31,0.0141
-0.08,1.01,-0.01,-3.62,-3.17,18.08,-26.37,-39.26,-26.37,1.49,0.08,-2.28,0.0146
-0.04,1.03,-0.01,11.71,-0.53,38.08,-26.95,-40.72,-26.07,1.53,0.04,-2.2,0.0152
-0.01,1.02,-0.01,3.36,12.36,49.07,-27.25,-41.6,-25.78,1.56,0.01,-2.14,0.0157
0.1,1.02,-0.04,7.55,26.7,78.47,-26.66,-43.95,-26.66,1.46,-0.1,-2.06,0.0162
0.19,0.99,-0.03,45.04,38.09,147.51,-25.49,-46.0,-27.25,1.38,-0.19,-1.99,0.0167
0.29,0.8,-0.09,88.55,4.83,74.82,-25.2,-46.88,-27.54,1.2,-0.35,-1.9,0.0172
0.81,0.99,-0.03,105.17,150.36,96.88,-24.32,-50.1,-29.3,0.88,-0.69,-1.72,0.0177
0.29,0.91,-0.28,-40.37,-117.39,-64.54,-24.32,-49.22,-29.0,1.16,-0.29,-1.95,0.0183
0.55,0.85,-0.2,11.15,95.66,59.23,-24.02,-51.86,-28.71,0.97,-0.56,-1.75,0.0188
0.54,0.97,-0.11,-2.61,-48.99,-16.78,-23.14,-50.98,-28.12,1.06,-0.5,-1.77,0.0193
0.73,0.83,-0.23,35.42,79.38,18.34,-24.02,-50.68,-27.54,0.82,-0.71,-1.7,0.0198
0.57,0.84,-0.13,30.84,28.06,-26.59,-23.73,-52.15,-27.83,0.96,-0.6,-1.72,0.0202
0.46,0.9,-0.12,53.16,94.73,43.21,-21.97,-52.44,-26.95,1.09,-0.46,-1.75,0.0206
0.48,1.14,-0.16,22.79,-47.05,-1.17,-22.85,-51.86,-28.71,1.15,-0.4,-1.82,0.0211
0.42,0.72,-0.2,26.74,-48.3,-1.93,-21.97,-51.27,-28.71,1.0,-0.51,-1.77,0.0215
0.86,1.01,-0.33,-24.58,21.22,22.91,-21.68,-51.56,-28.42,0.83,-0.68,-1.69,0.022
0.56,0.85,-0.28,28.72,-11.29,-7.0,-22.27,-52.73,-29.0,0.94,-0.56,-1.74,0.0224
0.57,0.97,-0.28,-10.55,17.75,34.46,-21.68,-53.03,-28.12,0.99,-0.52,-1.74,0.0229
0.72,1.32,-0.22,-76.33,44.63,87.44,-19.92,-54.2,-28.12,1.05,-0.49,-1.72,0.0233
0.69,0.56,-0.23,28.47,-2.45,44.34,-19.63,-54.49,-27.54,0.65,-0.86,-1.6,0.0238
0.82,0.52,-0.18,15.56,-5.74,-7.77,-19.63,-55.08,-26.66,0.56,-0.98,-1.58,0.0243
0.92,0.77,-0.18,-25.51,64.99,-4.85,-19.92,-54.79,-25.78,0.68,-0.86,-1.56,0.0247
0.76,0.94,-0.06,-43.96,7.35,-23.86,-20.51,-54.2,-25.49,0.89,-0.68,-1.6,0.0251
0.7,0.6,-0.03,8.13,3.17,-22.31,-20.21,-53.91,-24.32,0.71,-0.86,-1.55,0.0256
0.72,0.7,-0.03,2.82,-3.25,-20.95,-21.09,-54.49,-25.2,0.77,-0.8,-1.57,0.026
0.68,0.91,0.0,17.11,-6.23,24.59,-20.51,-53.61,-25.2,0.93,-0.65,-1.62,0.0265
0.69,0.84,-0.05,11.02,-12.66,27.79,-20.51,-55.66,-25.78,0.88,-0.69,-1.59,0.0269
0.87,0.67,-0.03,-11.84,25.73,11.47,-19.92,-55.37,-25.2,0.65,-0.92,-1.54,0.0274
1.06,0.68,-0.13,5.26,106.67,-18.11,-20.51,-55.66,-24.61,0.57,-0.99,-1.56,0.0278
0.44,0.71,0.03,-59.28,-25.38,-123.08,-21.39,-55.08,-22.85,1.01,-0.56,-1.62,0.0283
0.78,1.57,0.17,-117.46,128.04,-16.47,-21.39,-54.2,-21.09,1.1,-0.46,-1.66,0.0288
0.34,1.27,0.3,-88.97,45.94,-11.64,-20.51,-53.32,-18.16,1.22,-0.26,-1.76,0.0292
0.42,0.78,0.34,-16.21,26.99,24.83,-21.09,-54.49,-17.87,0.96,-0.46,-1.66,0.0297
0.45,0.82,0.39,4.97,-1.39,48.87,-19.63,-54.79,-18.16,0.94,-0.46,-1.66,0.0301
0.51,0.81,0.27,-75.65,-92.24,-16.69,-18.16,-55.08,-17.87,0.95,-0.54,-1.57,0.0305
0.74,0.45,0.19,-3.69,57.54,68.54,-17.87,-55.37,-16.99,0.53,-0.99,-1.5,0.031
0.7,0.9,0.35,-52.34,-28.56,-4.3,-17.29,-56.54,-18.16,0.85,-0.63,-1.53,0.0314
0.68,0.81,0.5,-74.07,-84.65,-32.71,-18.46,-56.84,-19.34,0.76,-0.62,-1.6,0.0318
1.11,1.24,0.29,12.69,7.8,39.11,-18.75,-56.54,-20.21,0.83,-0.72,-1.51,0.0322
0.66,0.76,0.33,-6.18,-56.3,-64.68,-18.46,-57.13,-20.51,0.8,-0.67,-1.55,0.0326
0.64,0.61,0.31,28.98,-13.31,-11.11,-19.04,-57.13,-20.8,0.71,-0.75,-1.55,0.033
0.6,0.71,0.23,34.57,-141.18,-88.97,-20.51,-55.66,-23.14,0.84,-0.68,-1.59,0.0334
0.89,0.8,0.1,10.7,34.88,35.99,-21.09,-56.25,-23.14,0.73,-0.83,-1.54,0.0338
0.84,0.81,0.13,-5.41,0.36,-7.03,-20.21,-56.54,-23.14,0.76,-0.79,-1.53,0.0342
0.43,0.73,0.23,25.92,-74.28,-75.73,-21.68,-55.96,-24.61,0.98,-0.51,-1.69,0.0346
0.91,1.08,0.1,-150.28,105.88,30.14,-19.63,-56.84,-21.68,0.87,-0.7,-1.53,0.035
0.17,0.94,-0.09,-250.0,-237.17,-172.2,-18.75,-56.84,-18.75,1.37,-0.18,-1.77,0.0354
1.92,-0.6,-0.0,158.37,178.7,81.44,-19.04,-55.96,-18.46,-0.3,-1.27,-2.33,0.0359
0.66,0.68,0.58,-70.66,-19.77,-24.86,-19.63,-55.96,-18.46,0.66,-0.63,-1.65,0.0362
0.7,0.45,0.54,4.97,-23.03,-20.75,-20.21,-55.37,-18.16,0.47,-0.78,-1.69,0.0366
0.74,0.47,0.43,18.75,-30.98,-46.13,-21.39,-55.66,-18.46,0.5,-0.86,-1.66,0.0371
0.83,0.49,0.38,27.72,-15.53,19.38,-21.09,-55.66,-20.8,0.49,-0.93,-1.64,0.0374
0.79,0.56,0.44,-0.64,-8.77,-20.22,-21.68,-55.08,-20.8,0.55,-0.84,-1.65,0.0378
0.78,0.54,0.43,3.0,-1.41,24.34,-21.97,-55.08,-19.63,0.55,-0.84,-1.65,0.0382
0.77,0.51,0.4,8.22,-6.84,17.95,-21.97,-55.37,-20.51,0.53,-0.87,-1.65,0.0386
0.81,0.5,0.35,6.45,-11.34,2.43,-21.68,-55.96,-20.51,0.52,-0.92,-1.63,0.039
0.8,0.49,0.38,1.01,-9.48,-0.33,-21.09,-55.08,-21.09,0.51,-0.91,-1.64,0.0393
0.79,0.48,0.35,-17.1,-13.04,1.87,-20.8,-55.37,-20.8,0.51,-0.93,-1.62,0.0397
0.58,0.25,0.48,-26.45,-64.72,-22.03,-19.92,-55.66,-20.51,0.32,-0.82,-1.76,0.0401
0.81,0.34,0.26,-5.07,-24.89,-0.44,-21.09,-56.54,-21.09,0.38,-1.08,-1.67,0.0405
0.85,0.33,0.29,8.09,-4.19,30.48,-19.92,-55.96,-20.51,0.36,-1.09,-1.68,0.0409
0.91,0.39,0.38,2.42,4.51,8.89,-19.92,-56.54,-21.39,0.38,-1.03,-1.67,0.0413
0.92,0.35,0.3,7.62,-0.75,5.06,-20.51,-56.54,-20.51,0.34,-1.11,-1.69,0.0417
0.9,0.34,0.28,-3.65,8.81,27.38,-18.75,-56.84,-20.51,0.35,-1.11,-1.65,0.0421
0.84,0.29,0.36,-12.79,11.15,27.89,-17.58,-57.13,-19.92,0.3,-1.07,-1.67,0.0425
0.88,0.23,0.38,0.78,-6.7,4.74,-16.11,-57.42,-19.92,0.24,-1.11,-1.7,0.0428
0.92,0.24,0.33,-3.07,2.4,10.41,-18.46,-57.42,-19.92,0.24,-1.15,-1.74,0.0432
0.89,0.24,0.35,7.58,-10.59,-5.0,-18.16,-57.71,-19.63,0.24,-1.13,-1.74,0.0436
0.91,0.21,0.39,7.57,-14.18,8.29,-16.7,-57.13,-19.63,0.2,-1.12,-1.75,0.044
1.01,0.3,0.31,2.68,-4.7,7.64,-16.7,-58.01,-21.09,0.27,-1.17,-1.66,0.0444
0.86,0.22,0.32,13.34,-14.5,3.43,-17.58,-57.42,-21.09,0.23,-1.15,-1.73,0.0448
0.92,0.26,0.3,4.6,-9.49,10.24,-17.58,-58.01,-20.8,0.27,-1.16,-1.69,0.0451
0.99,0.27,0.28,4.93,-14.41,11.32,-16.41,-57.71,-20.8,0.25,-1.2,-1.68,0.0455
0.85,0.15,0.33,9.28,-41.03,-19.93,-17.29,-57.71,-21.97,0.17,-1.16,-1.79,0.0461
1.01,0.24,0.35,-0.11,-18.09,-0.81,-17.58,-58.01,-22.27,0.22,-1.17,-1.74,0.0465
1.01,0.38,0.21,5.14,-32.44,-78.31,-17.87,-58.01,-22.27,0.35,-1.17,-1.61,0.0469
1.21,-0.16,0.12,27.38,-4.31,-53.28,-18.75,-58.3,-22.85,-0.13,-1.41,-2.25,0.0473
0.95,0.2,0.16,21.41,-18.78,-7.35,-19.34,-57.13,-23.14,0.2,-1.31,-1.81,0.0477
1.01,0.38,0.17,16.61,-17.36,-19.36,-19.92,-57.42,-23.44,0.35,-1.18,-1.65,0.0481
0.92,0.51,0.1,-46.95,-4.64,13.69,-19.63,-56.54,-24.02,0.51,-1.05,-1.55,0.0484
1.0,0.19,0.13,14.5,-12.32,3.23,-19.63,-57.13,-24.61,0.19,-1.34,-1.84,0.0488
1.05,0.41,0.13,7.74,-31.21,10.31,-19.34,-56.84,-24.32,0.37,-1.19,-1.63,0.0492
1.12,0.3,0.1,42.58,3.34,-9.72,-19.92,-57.13,-25.49,0.26,-1.3,-1.74,0.0496
0.98,0.4,0.19,17.82,-77.84,-24.28,-19.63,-56.54,-26.07,0.38,-1.15,-1.64,0.05
0.91,0.19,0.02,41.53,-133.64,-98.98,-19.92,-55.66,-28.71,0.2,-1.37,-1.81,0.0504
0.96,0.44,-0.19,17.14,-1.74,62.31,-19.34,-56.54,-29.88,0.42,-1.11,-1.62,0.0508
1.15,0.35,-0.28,0.42,-21.93,9.41,-18.75,-56.25,-29.0,0.29,-1.19,-1.7,0.0512
1.03,0.36,-0.18,-21.45,-67.12,-35.12,-20.51,-55.08,-30.76,0.33,-1.2,-1.7,0.0516
1.09,0.36,-0.32,9.04,-14.22,-1.34,-20.21,-55.37,-30.47,0.3,-1.15,-1.73,0.052
1.11,0.33,-0.28,11.47,-8.77,-20.45,-19.92,-55.08,-30.76,0.28,-1.2,-1.73,0.0524
1.13,0.35,-0.25,19.44,-11.73,-4.11,-20.21,-54.49,-30.18,0.29,-1.21,-1.73,0.0528
1.05,0.37,-0.33,-6.73,-34.16,-44.85,-20.8,-53.61,-31.35,0.33,-1.13,-1.74,0.0532
1.19,0.33,-0.48,33.88,18.55,-32.59,-21.09,-54.2,-31.93,0.25,-1.12,-1.79,0.0535
1.06,0.38,-0.41,2.6,-3.56,-27.68,-20.51,-53.32,-31.64,0.33,-1.09,-1.74,0.054
1.16,0.51,-0.3,4.1,37.19,-48.43,-21.09,-53.03,-32.52,0.4,-1.1,-1.7,0.0543
0.99,0.55,-0.38,-1.96,45.22,2.47,-21.39,-53.61,-31.05,0.48,-0.97,-1.69,0.0547
1.0,0.5,-0.28,-20.98,55.49,17.21,-20.51,-53.91,-29.3,0.45,-1.05,-1.66,0.0551
0.98,0.52,-0.19,-13.11,17.56,-5.1,-20.8,-53.91,-29.0,0.48,-1.05,-1.63,0.0555
1.06,0.56,-0.23,-18.49,48.87,24.43,-20.8,-55.37,-28.42,0.48,-1.05,-1.63,0.0559
1.09,0.46,-0.13,-11.47,44.47,37.71,-19.92,-55.96,-27.83,0.39,-1.16,-1.63,0.0563
1.0,0.38,-0.02,-28.02,19.49,13.95,-19.63,-56.25,-26.37,0.37,-1.2,-1.64,0.0567
1.03,0.32,-0.03,-16.65,12.5,4.66,-19.34,-55.96,-26.37,0.3,-1.27,-1.69,0.0571
0.93,0.29,0.06,-9.46,-34.64,-62.79,-20.51,-56.25,-26.66,0.3,-1.27,-1.72,0.0575
1.05,0.35,0.03,9.03,12.18,19.88,-20.51,-55.96,-25.49,0.32,-1.25,-1.7,0.0579
1.09,0.42,-0.04,4.62,1.21,-0.34,-19.92,-55.37,-26.07,0.36,-1.2,-1.65,0.0583
0.99,0.34,-0.02,4.93,2.9,6.73,-20.21,-56.54,-26.07,0.33,-1.24,-1.67,0.0588
1.08,0.34,0.04,-3.37,6.5,11.71,-20.51,-56.25,-26.07,0.31,-1.26,-1.71,0.0592
1.08,0.37,-0.03,-3.88,-5.45,-9.36,-20.21,-57.13,-24.9,0.33,-1.24,-1.67,0.0596
1.0,0.32,-0.01,11.67,-12.95,0.48,-19.92,-55.96,-25.78,0.31,-1.27,-1.7,0.06
1.04,0.37,-0.02,9.54,-17.14,0.95,-20.51,-56.54,-26.07,0.34,-1.23,-1.68,0.0604
1.13,0.39,-0.08,9.29,4.21,15.67,-19.04,-56.54,-25.78,0.33,-1.23,-1.65,0.0607
1.06,0.32,0.0,4.04,-16.22,-2.62,-20.51,-56.25,-26.37,0.29,-1.28,-1.72,0.0611
1.25,0.34,-0.13,10.16,52.23,47.05,-19.63,-56.84,-26.37,0.27,-1.29,-1.73,0.0615
1.11,0.41,0.03,-10.15,47.63,38.75,-19.34,-57.42,-26.37,0.36,-1.21,-1.63,0.0619
0.98,0.3,0.06,0.95,-5.96,-10.7,-19.34,-56.54,-25.49,0.29,-1.27,-1.69,0.0624
1.01,0.28,0.03,5.36,-11.15,-5.74,-18.16,-56.84,-25.78,0.27,-1.3,-1.69,0.0627
1.09,0.29,0.04,5.58,10.95,18.88,-18.75,-56.84,-25.49,0.26,-1.31,-1.72,0.0631
1.14,0.28,0.05,6.21,1.11,17.25,-18.46,-56.54,-25.2,0.24,-1.32,-1.73,0.0635
1.05,0.25,-0.02,3.17,-35.51,-7.64,-19.04,-57.13,-26.66,0.24,-1.33,-1.75,0.0639
1.12,0.29,-0.0,-7.51,-26.21,-25.78,-19.04,-56.84,-26.07,0.25,-1.32,-1.73,0.0643
0.93,0.26,-0.03,15.91,-58.04,-27.66,-19.34,-56.25,-27.25,0.28,-1.29,-1.71,0.0647
1.12,0.36,-0.12,7.33,-4.62,25.94,-19.63,-56.54,-28.42,0.31,-1.24,-1.68,0.0651
1.15,0.33,-0.15,6.84,3.75,27.69,-19.34,-56.84,-28.12,0.28,-1.26,-1.71,0.0655
1.09,0.28,-0.12,4.67,15.82,16.27,-18.16,-57.42,-27.54,0.25,-1.3,-1.71,0.0659
0.98,0.22,-0.05,1.69,-18.88,-0.88,-18.16,-57.42,-27.25,0.22,-1.35,-1.74,0.0663
1.19,0.22,-0.08,0.82,-17.11,-7.74,-18.16,-57.13,-27.54,0.19,-1.37,-1.79,0.0667
1.18,0.24,-0.16,-1.88,4.63,-11.18,-18.75,-57.13,-27.25,0.2,-1.33,-1.78,0.0671
1.11,0.29,-0.14,-4.68,6.28,-6.41,-19.04,-57.42,-26.95,0.26,-1.29,-1.72,0.0675
1.04,0.27,-0.1,5.07,-2.94,-6.89,-19.04,-57.13,-27.54,0.25,-1.31,-1.73,0.0679
1.1,0.27,-0.16,7.48,9.34,2.38,-19.04,-56.84,-27.83,0.24,-1.29,-1.75,0.0683
0.97,0.16,-0.05,14.34,-14.47,-38.43,-18.75,-57.71,-26.66,0.16,-1.4,-1.85,0.0687
1.11,0.27,-0.12,0.85,2.49,-18.34,-19.63,-56.25,-26.95,0.24,-1.31,-1.76,0.069
1.1,0.33,-0.05,-2.18,19.29,2.84,-19.04,-56.54,-26.37,0.29,-1.28,-1.69,0.0694
1.05,0.28,0.02,-16.49,-8.38,-25.49,-19.63,-56.54,-26.37,0.26,-1.31,-1.73,0.0698
1.24,0.39,-0.21,-16.24,56.9,22.87,-19.63,-57.13,-24.61,0.3,-1.23,-1.7,0.0702
1.06,0.35,0.0,-10.19,36.03,0.62,-19.34,-56.84,-24.32,0.32,-1.25,-1.66,0.0706
0.96,0.41,0.14,-29.14,5.17,-5.84,-19.92,-56.54,-23.73,0.4,-1.15,-1.62,0.071
0.91,0.23,0.06,-12.36,-13.42,-18.16,-19.92,-56.84,-24.02,0.25,-1.31,-1.76,0.0714
1.15,0.32,0.08,-6.6,14.37,20.27,-19.92,-56.54,-23.14,0.27,-1.29,-1.73,0.0718
1.01,0.31,0.08,-0.44,-5.78,-3.7,-20.51,-56.25,-23.44,0.3,-1.26,-1.72,0.0722
1.03,0.35,0.1,5.71,2.17,11.99,-19.63,-57.13,-23.44,0.33,-1.23,-1.66,0.0725
1.0,0.31,0.16,23.38,12.1,4.67,-19.92,-57.71,-22.56,0.3,-1.23,-1.7,0.0729
1.12,0.22,0.14,29.22,35.85,21.62,-19.34,-57.13,-22.27,0.19,-1.34,-1.84,0.0733
1.05,0.32,0.15,14.91,17.11,21.47,-18.75,-56.84,-22.85,0.29,-1.25,-1.68,0.0737
1.03,0.24,0.15,18.58,5.01,15.98,-18.46,-58.01,-23.14,0.23,-1.3,-1.74,0.074
1.03,0.24,0.19,4.65,-1.01,3.53,-18.75,-57.13,-23.44,0.22,-1.29,-1.77,0.0744
1.03,0.25,0.12,10.47,-1.46,3.97,-17.87,-58.3,-23.73,0.23,-1.31,-1.72,0.0748
1.04,0.25,0.11,7.68,-10.09,-1.85,-18.46,-58.01,-23.14,0.23,-1.32,-1.74,0.0752
1.12,0.23,0.1,-15.22,40.89,20.83,-17.87,-57.71,-22.27,0.2,-1.35,-1.78,0.0756
1.07,0.17,0.13,28.81,85.37,57.27,-17.29,-58.01,-21.68,0.15,-1.38,-1.84,0.076
0.81,0.23,0.33,6.04,6.6,12.97,-16.7,-58.3,-21.39,0.25,-1.11,-1.69,0.0763
0.89,0.11,0.3,42.33,41.66,61.47,-15.23,-58.89,-20.51,0.11,-1.23,-1.81,0.0767
0.73,0.24,0.4,25.39,-10.28,-5.04,-14.94,-59.77,-20.51,0.28,-1.0,-1.64,0.0771
0.94,0.12,0.34,21.8,14.67,24.99,-13.77,-59.47,-20.51,0.12,-1.21,-1.77,0.0775
0.97,0.19,0.36,9.53,10.43,18.77,-13.77,-58.3,-19.63,0.18,-1.17,-1.69,0.0779
1.0,0.12,0.36,4.94,4.97,13.21,-13.77,-59.18,-19.92,0.11,-1.2,-1.78,0.0783
0.95,0.07,0.37,0.85,1.03,2.24,-13.77,-59.18,-20.21,0.07,-1.19,-1.82,0.0786
1.13,0.31,0.47,-38.86,27.13,14.07,-12.6,-58.3,-19.63,0.25,-1.11,-1.61,0.079
0.66,0.25,0.4,-64.41,-29.55,-67.73,-12.6,-58.59,-19.34,0.31,-0.96,-1.59,0.0794
0.71,-0.29,0.32,-3.94,-14.71,-33.15,-14.06,-58.01,-19.34,-0.36,-1.03,-2.1,0.0798
0.98,0.12,0.49,-13.9,-19.21,-19.1,-14.65,-58.3,-19.63,0.11,-1.1,-1.79,0.0802
1.13,0.08,0.27,-14.55,13.68,-13.02,-15.23,-58.59,-19.04,0.07,-1.33,-1.91,0.0806
0.95,-0.17,0.25,21.53,30.98,18.1,-14.94,-58.89,-19.04,-0.17,-1.26,-2.14,0.081
0.89,0.06,0.4,23.97,5.2,28.27,-14.36,-57.42,-19.63,0.06,-1.14,-1.84,0.0814
1.01,0.09,0.42,2.37,7.29,11.76,-13.77,-58.3,-18.46,0.08,-1.17,-1.81,0.0818
0.93,0.05,0.41,2.98,1.88,4.84,-13.77,-58.89,-19.34,0.05,-1.16,-1.84,0.0822
0.91,0.04,0.41,5.69,5.65,11.91,-14.36,-58.89,-18.46,0.04,-1.15,-1.87,0.0826
0.89,0.03,0.41,6.24,-51.33,-25.05,-13.77,-59.18,-19.63,0.03,-1.14,-1.86,0.083
0.97,0.12,0.38,-32.49,-29.22,-53.73,-14.65,-58.3,-18.75,0.12,-1.18,-1.8,0.0834
1.01,0.11,0.19,-40.41,-49.42,-3.47,-15.53,-57.71,-19.92,0.11,-1.36,-1.87,0.0838
0.93,0.06,0.26,10.17,-19.45,19.09,-15.23,-58.59,-20.8,0.06,-1.29,-1.89,0.0842
0.98,0.11,0.3,-37.05,-60.5,-33.86,-16.11,-58.59,-21.09,0.11,-1.25,-1.84,0.0846
1.07,-0.0,0.14,-46.53,-35.25,-34.42,-16.7,-58.01,-21.09,-0.0,-1.44,-2.1,0.085
1.1,0.04,-0.0,-10.36,55.3,10.2,-15.82,-58.3,-19.92,0.03,-1.54,-2.13,0.0854
0.75,0.05,0.31,-2.04,5.33,7.16,-15.23,-58.01,-20.21,0.06,-1.18,-1.87,0.0858
1.07,-0.03,0.13,-0.27,32.62,10.15,-15.82,-58.3,-19.04,-0.02,-1.45,-2.16,0.0862
0.96,0.08,0.47,-9.56,2.17,-4.36,-15.53,-58.59,-20.21,0.07,-1.11,-1.84,0.0866
0.86,-0.07,0.06,7.66,24.01,36.18,-14.36,-58.59,-18.75,-0.09,-1.46,-2.22,0.0869
0.99,0.01,0.21,5.48,-25.44,12.5,-14.06,-58.59,-19.34,0.01,-1.36,-1.99,0.0873
0.95,-0.0,0.22,-2.05,-50.89,-20.96,-14.36,-58.3,-19.92,-0.0,-1.34,-1.99,0.0878
1.23,0.1,0.27,-22.0,38.28,37.38,-13.77,-58.3,-19.63,0.08,-1.34,-1.86,0.0882
0.92,-0.16,0.34,-13.42,19.16,-7.71,-14.06,-58.59,-19.04,-0.16,-1.19,-2.06,0.0886
0.9,-0.1,0.3,13.4,7.2,-7.81,-13.77,-59.18,-18.46,-0.1,-1.23,-2.04,0.089
0.9,-0.02,0.35,0.34,-3.72,1.13,-13.48,-58.89,-18.46,-0.03,-1.2,-1.94,0.0894
0.97,-0.07,0.3,8.66,-13.95,28.99,-13.77,-58.59,-19.34,-0.07,-1.26,-2.01,0.0898
0.94,-0.11,0.26,3.13,-23.44,-5.55,-13.77,-59.47,-19.92,-0.11,-1.28,-2.06,0.0902
1.03,-0.07,0.23,-4.63,-27.77,-22.91,-14.36,-58.89,-20.8,-0.06,-1.34,-2.06,0.0906
1.06,-0.05,0.18,-17.6,4.87,-27.85,-14.06,-59.47,-19.34,-0.04,-1.4,-2.08,0.091
0.96,-0.05,0.28,-34.65,27.05,29.74,-13.18,-58.89,-19.63,-0.05,-1.28,-1.99,0.0914
0.98,-0.23,0.33,9.35,2.91,9.83,-13.48,-59.47,-19.34,-0.22,-1.18,-2.1,0.0918
0.97,-0.14,0.29,7.95,-14.56,-8.9,-13.77,-58.89,-20.21,-0.14,-1.25,-2.06,0.0922
1.01,-0.08,0.24,6.37,-12.63,-8.14,-13.77,-59.18,-19.63,-0.08,-1.32,-2.06,0.0926
0.99,-0.13,0.23,15.62,-11.44,-10.86,-12.89,-58.89,-19.92,-0.13,-1.3,-2.08,0.093
1.03,-0.04,0.25,12.63,-6.13,-9.46,-14.65,-58.89,-20.21,-0.04,-1.33,-2.03,0.0934
1.01,-0.04,0.19,12.1,-1.02,-4.36,-14.06,-58.59,-20.21,-0.04,-1.38,-2.05,0.0938
0.97,-0.07,0.23,8.99,-8.0,-5.04,-13.48,-58.59,-20.21,-0.07,-1.33,-2.04,0.0942
1.05,-0.03,0.2,10.18,0.03,-0.89,-13.77,-58.89,-19.92,-0.03,-1.38,-2.03,0.0946
0.99,-0.04,0.23,22.12,-14.39,25.81,-14.36,-59.18,-21.09,-0.04,-1.34,-2.02,0.095
0.97,-0.05,0.18,8.22,-5.87,16.87,-13.48,-60.35,-21.09,-0.05,-1.38,-2.04,0.0954
1.06,-0.08,0.16,3.78,-14.36,2.05,-13.48,-59.77,-21.68,-0.07,-1.4,-2.08,0.0958
1.06,-0.12,0.17,-9.31,-28.0,-29.08,-13.48,-58.3,-21.68,-0.11,-1.38,-2.1,0.0962
1.09,-0.03,0.12,3.23,-14.18,-12.79,-14.36,-59.18,-21.97,-0.02,-1.46,-2.07,0.0966
1.04,-0.04,0.11,4.22,-7.05,-7.89,-14.65,-59.18,-22.85,-0.04,-1.46,-2.09,0.097
1.09,-0.03,0.09,3.52,-5.95,-5.55,-15.23,-59.18,-22.56,-0.03,-1.48,-2.12,0.0974
1.06,-0.03,0.11,4.11,-3.11,-3.12,-15.53,-59.47,-22.85,-0.03,-1.46,-2.11,0.0978
1.04,-0.03,0.1,3.33,-2.08,3.76,-14.65,-58.3,-22.85,-0.02,-1.47,-2.08,0.0982
1.03,-0.05,0.12,1.24,-6.22,-1.2,-14.65,-59.47,-22.85,-0.05,-1.45,-2.09,0.0986
1.08,-0.05,0.08,2.8,-3.14,1.98,-14.65,-59.47,-22.56,-0.05,-1.48,-2.13,0.099
1.06,-0.06,0.1,2.94,-1.61,0.59,-14.36,-59.77,-23.14,-0.06,-1.46,-2.11,0.0993
1.08,-0.05,0.09,4.56,-1.97,-1.05,-14.06,-59.18,-22.85,-0.05,-1.47,-2.1,0.0997
1.06,-0.05,0.09,2.68,-1.88,0.09,-14.36,-59.18,-23.14,-0.05,-1.47,-2.11,0.1001
1.07,-0.05,0.08,3.75,-4.38,-2.48,-14.06,-59.18,-24.02,-0.05,-1.49,-2.09,0.1005
1.05,-0.06,0.09,1.77,-0.81,1.07,-14.06,-59.18,-22.27,-0.06,-1.47,-2.12,0.1009
1.07,-0.05,0.06,5.18,-1.67,-0.1,-14.94,-59.47,-22.85,-0.05,-1.5,-2.15,0.1013
1.06,-0.04,0.09,4.56,-3.1,-2.11,-14.36,-59.77,-24.32,-0.04,-1.48,-2.08,0.1017
1.08,-0.05,0.09,4.83,-2.91,-3.01,-14.94,-59.47,-23.44,-0.05,-1.47,-2.12,0.1021
1.11,-0.03,0.07,5.1,0.74,-0.57,-14.06,-60.06,-22.85,-0.03,-1.5,-2.1,0.1024
1.07,-0.03,0.1,2.69,0.8,-2.14,-14.65,-59.18,-22.56,-0.03,-1.47,-2.1,0.1028
1.05,-0.04,0.08,2.98,-1.05,0.27,-14.36,-59.18,-23.44,-0.04,-1.48,-2.09,0.1032
1.07,-0.04,0.07,4.25,-0.98,-1.77,-13.48,-59.77,-23.14,-0.04,-1.49,-2.09,0.1036
1.08,-0.03,0.07,2.51,1.05,4.9,-13.48,-58.59,-23.73,-0.02,-1.5,-2.06,0.104
1.05,-0.02,0.1,0.86,0.88,7.8,-13.77,-59.47,-22.56,-0.02,-1.47,-2.05,0.1044
1.06,-0.06,0.1,0.09,1.07,12.11,-13.77,-59.77,-22.85,-0.05,-1.47,-2.09,0.1048
1.07,-0.09,0.1,-0.47,-3.72,2.45,-14.06,-59.77,-23.44,-0.09,-1.44,-2.12,0.1051
1.08,-0.09,0.07,1.28,-1.39,3.78,-14.06,-60.06,-23.44,-0.09,-1.46,-2.14,0.1055
1.09,-0.09,0.08,1.72,-0.95,-3.66,-14.94,-59.18,-22.27,-0.09,-1.46,-2.17,0.1059
1.08,-0.08,0.08,2.86,-1.13,-3.96,-14.06,-59.47,-23.14,-0.07,-1.47,-2.13,0.1063
1.07,-0.06,0.07,2.46,-0.02,-0.85,-14.65,-60.06,-23.14,-0.06,-1.49,-2.14,0.1067
1.05,-0.05,0.05,1.21,3.36,7.17,-14.06,-59.47,-23.14,-0.05,-1.5,-2.13,0.1071
1.04,-0.1,0.12,0.71,-0.98,7.61,-14.06,-59.18,-21.97,-0.09,-1.42,-2.13,0.1075
1.08,-0.11,0.08,1.46,-0.43,9.83,-13.77,-59.47,-22.56,-0.1,-1.45,-2.14,0.1079
1.08,-0.12,0.08,1.26,0.69,3.75,-13.48,-60.06,-22.85,-0.11,-1.44,-2.14,0.1083
1.05,-0.11,0.11,-1.1,0.69,-5.04,-13.48,-60.06,-22.56,-0.1,-1.42,-2.13,0.1087
1.07,-0.11,0.18,-17.97,12.87,21.39,-14.06,-59.18,-22.27,-0.11,-1.37,-2.1,0.1091
1.05,-0.12,0.08,-5.47,-0.55,-1.12,-13.77,-59.77,-22.56,-0.12,-1.43,-2.15,0.1095
1.06,-0.09,0.04,2.68,7.31,8.51,-13.77,-59.47,-22.56,-0.09,-1.47,-2.16,0.1099
1.06,-0.14,0.09,2.72,6.41,10.11,-12.89,-59.77,-22.27,-0.13,-1.41,-2.14,0.1102
1.04,-0.13,0.15,-4.23,7.36,7.71,-12.89,-59.18,-22.27,-0.12,-1.38,-2.1,0.1106
1.02,-0.13,0.11,1.01,-2.78,-8.31,-12.89,-59.47,-21.97,-0.12,-1.41,-2.13,0.111
1.05,-0.12,0.08,3.52,-2.37,-1.45,-12.89,-59.77,-21.97,-0.11,-1.43,-2.14,0.1114
1.05,-0.15,0.11,3.36,-0.14,0.31,-13.18,-59.77,-22.56,-0.14,-1.4,-2.14,0.1118
1.07,-0.13,0.11,3.92,0.34,4.7,-13.18,-60.06,-22.27,-0.12,-1.41,-2.13,0.1122
1.05,-0.13,0.12,4.29,5.2,-1.63,-12.6,-59.77,-21.68,-0.13,-1.4,-2.12,0.1126
1.0,-0.14,0.13,16.64,8.52,20.89,-12.6,-59.18,-21.68,-0.14,-1.38,-2.12,0.113
0.96,-0.2,0.25,2.42,-3.56,-3.01,-12.3,-59.47,-21.39,-0.2,-1.25,-2.09,0.1134
1.03,-0.18,0.17,-1.17,-0.71,2.4,-12.01,-59.18,-21.68,-0.17,-1.33,-2.11,0.1138
1.03,-0.18,0.15,-5.65,-13.13,-16.22,-12.89,-59.47,-22.27,-0.17,-1.35,-2.13,0.1142
1.02,-0.14,0.11,1.9,-4.04,-7.77,-12.3,-59.18,-21.68,-0.14,-1.4,-2.12,0.1146
1.06,-0.14,0.12,3.23,-4.08,-6.27,-12.89,-59.77,-21.39,-0.13,-1.4,-2.14,0.115
1.03,-0.14,0.12,3.43,-3.99,-2.13,-13.18,-60.35,-22.27,-0.14,-1.39,-2.14,0.1154
1.04,-0.14,0.13,1.24,-2.17,1.27,-12.89,-59.77,-21.68,-0.13,-1.39,-2.13,0.1157
1.06,-0.14,0.11,3.82,0.28,5.08,-13.18,-60.94,-21.68,-0.13,-1.41,-2.14,0.1161
1.05,-0.16,0.13,2.56,-0.45,-0.66,-13.18,-60.94,-22.56,-0.15,-1.37,-2.13,0.1165
1.04,-0.15,0.12,2.75,-0.02,0.06,-12.01,-60.06,-22.27,-0.15,-1.38,-2.11,0.1169
1.04,-0.14,0.13,-0.98,-3.82,-1.72,-12.6,-59.18,-22.27,-0.13,-1.39,-2.12,0.1173
1.03,-0.14,0.11,2.89,0.68,1.89,-12.89,-60.06,-22.56,-0.13,-1.4,-2.12,0.1177
1.05,-0.15,0.12,2.08,-1.39,1.33,-13.18,-60.06,-22.56,-0.14,-1.39,-2.13,0.1181
1.05,-0.15,0.12,3.49,-1.4,-1.0,-12.3,-59.77,-20.8,-0.14,-1.39,-2.14,0.1185
1.04,-0.15,0.12,2.84,0.13,0.72,-13.18,-60.35,-22.27,-0.14,-1.39,-2.14,0.1189
1.05,-0.16,0.14,2.22,-1.17,-2.75,-12.6,-59.77,-22.56,-0.15,-1.37,-2.12,0.1193
1.04,-0.15,0.11,3.33,-0.27,-0.42,-12.6,-60.64,-21.39,-0.14,-1.4,-2.14,0.1196
1.05,-0.15,0.13,1.45,-1.35,-1.45,-13.18,-59.77,-22.56,-0.14,-1.38,-2.12,0.12
1.04,-0.14,0.11,2.92,0.51,4.52,-12.6,-60.06,-22.56,-0.13,-1.4,-2.12,0.1204
1.04,-0.17,0.13,2.53,-1.63,-4.39,-12.89,-59.77,-22.85,-0.16,-1.37,-2.13,0.1208
1.04,-0.15,0.11,3.45,-0.64,0.3,-12.6,-59.47,-22.56,-0.14,-1.39,-2.12,0.1212
1.06,-0.14,0.12,2.49,-1.6,-2.24,-12.89,-60.35,-23.14,-0.13,-1.4,-2.12,0.1216
1.03,-0.15,0.13,2.8,-1.26,-1.34,-12.6,-60.06,-22.85,-0.14,-1.38,-2.11,0.122
1.05,-0.15,0.11,3.4,-0.81,2.23,-12.89,-60.35,-22.85,-0.14,-1.39,-2.13,0.1224
1.07,-0.15,0.12,3.66,-2.3,-0.56,-13.48,-59.77,-22.27,-0.14,-1.39,-2.14,0.1228
1.04,-0.15,0.13,3.81,-3.36,-8.75,-12.01,-60.06,-22.27,-0.14,-1.38,-2.11,0.1231
1.03,-0.15,0.13,1.31,-1.11,-5.91,-12.3,-59.47,-22.27,-0.14,-1.38,-2.11,0.1236
1.04,-0.13,0.11,2.47,0.02,0.88,-12.89,-60.35,-22.56,-0.12,-1.41,-2.12,0.124
1.03,-0.14,0.12,1.8,-0.22,2.64,-13.48,-59.47,-22.56,-0.13,-1.4,-2.13,0.1243
1.04,-0.15,0.11,3.85,0.33,4.07,-12.6,-60.06,-22.27,-0.14,-1.4,-2.13,0.1247
1.05,-0.15,0.13,3.43,-1.37,-2.29,-12.01,-60.06,-22.27,-0.14,-1.38,-2.11,0.1251
1.06,-0.17,0.11,6.75,-5.98,-3.77,-12.3,-59.77,-22.27,-0.15,-1.38,-2.13,0.1255
1.14,-0.14,-0.05,22.6,9.23,17.65,-12.3,-59.77,-22.85,-0.12,-1.44,-2.13,0.1259
1.02,-0.19,0.17,14.67,12.41,13.61,-12.3,-60.35,-22.27,-0.18,-1.32,-2.11,0.1263
1.1,-0.18,0.2,3.78,3.94,-8.28,-12.6,-59.77,-22.27,-0.16,-1.33,-2.1,0.1267
0.97,-0.2,0.12,0.43,10.06,3.04,-12.3,-59.47,-22.56,-0.21,-1.33,-2.13,0.1271
1.01,-0.18,0.25,12.14,2.03,8.13,-12.01,-59.77,-21.97,-0.17,-1.28,-2.06,0.1275
1.02,-0.2,0.12,13.52,-9.16,-12.14,-12.01,-59.77,-21.39,-0.19,-1.35,-2.14,0.1279
1.02,-0.2,0.16,8.16,-16.49,-23.03,-12.6,-59.47,-22.85,-0.19,-1.33,-2.12,0.1283
1.0,-0.11,0.11,14.58,-7.45,-12.73,-12.3,-59.47,-22.56,-0.11,-1.42,-2.1,0.1287
0.99,-0.09,0.11,9.51,-4.97,-4.31,-12.3,-60.64,-22.27,-0.09,-1.43,-2.09,0.1291
1.05,-0.14,0.16,9.43,-5.87,-4.65,-13.48,-58.89,-23.14,-0.13,-1.37,-2.11,0.1295
1.14,-0.09,0.1,5.1,-4.61,-12.83,-12.89,-59.77,-22.85,-0.08,-1.45,-2.1,0.1299
1.11,-0.06,0.12,8.4,-1.4,-4.91,-13.18,-59.77,-22.56,-0.06,-1.45,-2.08,0.1303
1.02,-0.08,0.07,11.37,5.07,5.29,-12.89,-60.06,-22.27,-0.08,-1.46,-2.12,0.1307
1.02,-0.11,0.13,5.93,-5.06,-10.19,-14.06,-59.47,-23.44,-0.1,-1.41,-2.11,0.1311
1.04,-0.02,0.1,4.2,-6.02,-1.87,-13.77,-59.77,-22.56,-0.02,-1.47,-2.06,0.1315
1.06,-0.01,0.09,9.39,-5.56,-5.14,-13.77,-60.06,-24.32,-0.01,-1.49,-2.03,0.1319
1.08,-0.04,0.13,3.56,-3.38,0.82,-14.36,-59.77,-22.85,-0.03,-1.45,-2.07,0.1323
1.07,-0.05,0.13,1.14,-4.59,-3.52,-14.65,-59.77,-23.73,-0.04,-1.44,-2.07,0.1327
1.07,-0.03,0.07,2.95,-6.71,-9.91,-14.36,-60.35,-23.14,-0.03,-1.5,-2.1,0.133
1.1,-0.01,0.05,4.35,-3.62,-4.24,-13.77,-59.47,-23.73,-0.01,-1.52,-2.07,0.1334
1.08,-0.01,0.09,1.19,-3.67,-9.4,-14.36,-59.77,-23.44,-0.01,-1.49,-2.06,0.1338
1.06,-0.0,0.07,0.29,0.71,2.37,-14.36,-58.89,-24.02,-0.0,-1.5,-2.05,0.1342
1.05,-0.04,0.06,-0.23,-4.81,-4.42,-14.94,-59.77,-24.02,-0.03,-1.5,-2.11,0.1346
1.09,0.04,0.09,2.98,-6.61,3.97,-14.94,-60.35,-23.14,0.03,-1.48,-2.0,0.135
1.15,-0.01,0.14,-13.18,-8.6,-21.65,-15.23,-59.77,-23.73,-0.01,-1.45,-2.04,0.1354
1.15,0.03,0.0,-3.8,-2.31,1.97,-15.53,-59.47,-24.32,0.03,-1.54,-2.07,0.1358
0.95,-0.06,-0.01,4.46,-0.31,-13.92,-15.23,-59.77,-24.02,-0.07,-1.5,-2.17,0.1362
1.13,0.03,-0.01,8.87,1.05,14.74,-15.53,-60.06,-23.44,0.03,-1.54,-2.07,0.1366
1.09,-0.03,0.08,3.54,1.72,18.52,-14.06,-59.77,-23.14,-0.03,-1.49,-2.09,0.1369
1.06,-0.09,0.16,0.37,2.74,11.2,-14.65,-59.77,-23.14,-0.08,-1.4,-2.1,0.1373
1.12,-0.07,-0.03,4.88,-3.09,1.23,-14.65,-59.77,-23.44,-0.06,-1.5,-2.16,0.1377
1.03,-0.07,0.06,10.38,-16.18,-44.88,-14.94,-59.77,-23.73,-0.07,-1.48,-2.15,0.1381
1.11,0.11,0.05,65.9,-49.59,52.26,-14.36,-59.47,-24.9,0.1,-1.46,-1.83,0.1385
1.12,0.05,0.01,2.87,5.06,6.73,-14.94,-59.77,-25.2,0.04,-1.53,-1.99,0.1389
1.05,-0.02,0.02,5.13,1.4,4.91,-13.77,-59.77,-24.32,-0.02,-1.54,-2.09,0.1393
1.09,0.01,-0.0,4.36,1.91,7.65,-13.48,-59.18,-23.44,0.01,-1.56,-2.06,0.1397
1.12,-0.01,0.01,32.11,32.75,87.3,-12.3,-60.35,-23.73,-0.01,-1.56,-2.05,0.1401
1.04,-0.2,0.11,4.25,15.01,22.76,-10.55,-60.35,-23.14,-0.19,-1.35,-2.1,0.1405
1.03,-0.23,0.07,-1.91,5.69,20.16,-10.84,-59.47,-22.56,-0.22,-1.34,-2.13,0.1409
1.04,-0.18,0.11,0.52,-7.42,-7.46,-10.84,-60.35,-23.44,-0.17,-1.37,-2.09,0.1413
1.04,-0.16,0.11,-1.01,-6.29,-10.93,-11.43,-60.64,-22.85,-0.15,-1.39,-2.1,0.1417
1.03,-0.16,0.1,2.45,-2.27,-3.83,-11.43,-60.35,-23.14,-0.15,-1.39,-2.1,0.1421
1.06,-0.16,0.11,2.63,-5.63,1.66,-11.43,-60.35,-22.85,-0.15,-1.39,-2.1,0.1425
1.09,-0.14,0.09,3.89,-0.63,-3.37,-11.72,-60.06,-23.44,-0.12,-1.42,-2.09,0.1429
1.07,-0.15,0.11,0.31,7.25,5.61,-12.01,-60.06,-23.73,-0.14,-1.4,-2.09,0.1433
1.07,-0.15,0.09,4.07,8.84,8.56,-11.43,-60.64,-23.14,-0.13,-1.41,-2.1,0.1436
1.02,-0.17,0.14,3.44,7.19,1.79,-11.13,-60.06,-23.73,-0.17,-1.35,-2.07,0.144
1.03,-0.16,0.13,3.96,5.23,-5.12,-11.72,-59.77,-22.56,-0.15,-1.38,-2.1,0.1444
1.01,-0.15,0.11,4.52,5.65,3.3,-10.84,-60.06,-23.14,-0.14,-1.39,-2.08,0.1448
1.03,-0.14,0.11,3.14,-0.34,2.89,-11.13,-60.35,-23.44,-0.13,-1.4,-2.07,0.1452
1.03,-0.16,0.13,1.53,0.24,4.01,-11.43,-59.77,-23.14,-0.15,-1.37,-2.09,0.1456
1.02,-0.17,0.14,0.06,0.22,3.07,-10.55,-60.06,-21.68,-0.16,-1.36,-2.09,0.1459
1.05,-0.15,0.12,1.51,-4.81,-0.73,-10.55,-59.47,-23.44,-0.14,-1.38,-2.06,0.1463
1.02,-0.18,0.15,0.81,-1.07,7.58,-10.84,-60.06,-23.14,-0.18,-1.34,-2.07,0.1467
1.06,-0.18,0.14,0.05,2.14,4.95,-11.13,-59.77,-22.27,-0.16,-1.36,-2.1,0.1471
1.01,-0.19,0.16,-2.01,3.84,-3.33,-11.13,-60.06,-22.85,-0.18,-1.33,-2.08,0.1475
1.03,-0.17,0.13,2.01,2.85,1.88,-12.01,-60.64,-21.97,-0.17,-1.36,-2.12,0.1479
1.02,-0.18,0.13,0.37,1.74,1.27,-10.84,-60.06,-22.56,-0.17,-1.35,-2.09,0.1483
1.02,-0.21,0.17,1.44,1.7,-0.37,-11.13,-60.06,-21.97,-0.2,-1.31,-2.1,0.1486
1.04,-0.2,0.09,1.69,-4.37,-6.99,-11.43,-60.94,-22.27,-0.19,-1.36,-2.13,0.149
1.04,-0.17,0.13,2.33,3.07,3.32,-10.55,-59.18,-23.14,-0.16,-1.37,-2.07,0.1494
1.06,-0.14,0.12,3.75,1.74,10.32,-11.13,-60.64,-22.56,-0.13,-1.4,-2.08,0.1498
1.0,-0.19,0.16,2.84,-1.76,0.82,-10.55,-60.94,-21.97,-0.18,-1.33,-2.08,0.1502
1.02,-0.19,0.12,3.24,0.43,6.66,-10.84,-60.64,-22.56,-0.18,-1.36,-2.1,0.1506
1.07,-0.21,0.1,3.91,24.78,8.51,-10.55,-60.06,-21.97,-0.19,-1.36,-2.12,0.1509
1.0,-0.23,0.14,12.38,3.1,-5.87,-10.25,-59.47,-21.39,-0.23,-1.31,-2.11,0.1513
1.01,-0.18,0.22,2.12,0.08,-4.28,-10.55,-60.35,-23.14,-0.18,-1.3,-2.04,0.1517
0.97,-0.17,0.14,3.01,-0.97,-2.49,-10.25,-59.47,-21.97,-0.18,-1.34,-2.08,0.1521
1.01,-0.16,0.19,0.7,1.21,5.67,-11.13,-59.77,-21.97,-0.16,-1.33,-2.07,0.1525
1.02,-0.18,0.17,1.22,-1.11,3.42,-9.96,-59.77,-21.97,-0.18,-1.33,-2.06,0.1529
0.97,-0.21,0.18,1.89,2.81,13.54,-9.96,-59.47,-22.85,-0.21,-1.29,-2.06,0.1533
1.0,-0.25,0.19,2.89,1.05,7.06,-9.96,-60.35,-21.97,-0.24,-1.27,-2.08,0.1536
1.04,-0.25,0.17,2.1,-3.11,0.12,-9.96,-60.64,-21.97,-0.23,-1.29,-2.09,0.154
1.04,-0.22,0.17,0.64,-10.77,-10.15,-10.55,-59.18,-21.39,-0.21,-1.31,-2.1,0.1544
0.99,-0.22,0.14,5.69,-7.57,-3.43,-10.84,-60.35,-22.56,-0.22,-1.31,-2.1,0.1548
0.93,-0.27,0.15,11.18,-6.61,8.5,-10.25,-60.64,-22.85,-0.28,-1.25,-2.1,0.1552
1.28,-0.14,0.24,10.22,-14.98,19.71,-9.96,-59.77,-22.85,-0.11,-1.35,-1.99,0.1556
0.96,-0.2,0.16,3.12,-3.17,-7.2,-11.13,-59.77,-22.27,-0.2,-1.32,-2.1,0.156
1.04,-0.17,0.06,16.93,-0.05,2.49,-10.25,-59.77,-22.27,-0.17,-1.39,-2.11,0.1564
1.26,-0.14,0.11,-4.13,1.4,-4.75,-10.84,-59.77,-22.85,-0.11,-1.43,-2.07,0.1568
1.07,-0.2,0.12,8.46,9.31,24.28,-11.13,-59.77,-22.85,-0.18,-1.36,-2.1,0.1572
0.91,-0.21,0.23,9.5,-20.5,-8.0,-10.84,-59.47,-23.14,-0.22,-1.24,-2.05,0.1576
1.03,-0.2,0.13,17.01,-27.7,-20.04,-11.13,-60.06,-23.44,-0.19,-1.34,-2.1,0.158
1.1,-0.17,0.05,3.97,-0.43,8.33,-10.25,-59.77,-22.85,-0.15,-1.41,-2.09,0.1584
1.06,-0.14,0.07,-4.1,-0.79,4.44,-11.72,-59.77,-23.73,-0.13,-1.43,-2.1,0.1588
1.02,-0.13,0.11,-0.82,2.27,3.73,-10.55,-60.35,-23.73,-0.13,-1.41,-2.05,0.1592
0.99,-0.21,0.14,5.55,19.22,30.17,-10.55,-60.06,-22.56,-0.2,-1.32,-2.09,0.1596
0.99,-0.26,0.06,3.06,-0.97,-1.78,-9.67,-59.47,-23.14,-0.26,-1.3,-2.11,0.16
1.09,-0.27,0.08,5.78,-14.21,-6.34,-9.96,-60.06,-22.56,-0.24,-1.32,-2.11,0.1604
1.04,-0.21,0.14,-2.42,-2.58,-2.94,-10.25,-60.94,-23.73,-0.2,-1.33,-2.08,0.1608
1.09,-0.14,0.12,1.18,-10.34,-10.15,-10.25,-59.77,-22.85,-0.12,-1.41,-2.05,0.1612
1.07,-0.17,0.08,-4.41,-1.88,-5.46,-10.25,-59.77,-23.14,-0.16,-1.39,-2.08,0.1616
0.99,-0.19,0.09,3.91,3.52,0.8,-10.25,-58.89,-22.85,-0.19,-1.36,-2.09,0.162
1.03,-0.18,0.06,1.07,-0.1,-5.04,-11.13,-59.77,-22.85,-0.17,-1.39,-2.12,0.1624
1.02,-0.19,0.07,2.56,7.26,4.27,-10.84,-60.06,-22.85,-0.19,-1.37,-2.12,0.1627
1.0,-0.18,0.09,0.23,-9.0,-11.5,-10.55,-59.47,-21.97,-0.18,-1.37,-2.11,0.1631
1.06,-0.21,0.08,5.86,1.62,2.59,-10.84,-59.77,-22.56,-0.19,-1.37,-2.12,0.1635
1.12,-0.21,0.11,7.56,12.16,13.9,-11.13,-59.18,-22.85,-0.18,-1.37,-2.11,0.1639
1.01,-0.21,0.12,1.49,6.36,2.68,-10.55,-60.06,-22.85,-0.21,-1.33,-2.1,0.1643
1.0,-0.22,0.11,2.73,0.17,-3.89,-10.84,-59.47,-22.27,-0.22,-1.33,-2.12,0.1647
1.0,-0.2,0.08,7.39,-4.49,-0.89,-11.43,-58.89,-22.85,-0.2,-1.36,-2.13,0.165
1.06,-0.18,0.19,0.95,-0.22,0.31,-11.13,-59.77,-22.85,-0.16,-1.33,-2.06,0.1654
1.04,-0.22,0.15,4.42,1.7,-5.26,-9.96,-59.77,-22.85,-0.2,-1.32,-2.07,0.1658
1.08,-0.2,0.17,-7.27,12.65,21.13,-10.25,-58.89,-22.27,-0.18,-1.33,-2.07,0.1662
1.0,-0.23,0.15,-1.93,-3.68,-15.92,-10.84,-60.35,-22.27,-0.22,-1.3,-2.1,0.1666
1.0,-0.21,0.11,-1.24,-8.45,-11.66,-9.96,-59.77,-22.27,-0.21,-1.34,-2.1,0.167
1.01,-0.21,0.13,3.63,-3.4,-6.27,-10.84,-59.47,-22.27,-0.2,-1.33,-2.1,0.1674
1.01,-0.22,0.15,3.81,-5.62,-11.34,-10.84,-59.77,-22.27,-0.21,-1.31,-2.1,0.1678
0.99,-0.18,0.11,2.64,-8.32,-18.98,-11.72,-60.06,-22.85,-0.18,-1.36,-2.11,0.1682
1.02,-0.16,0.1,1.89,-0.34,0.52,-11.43,-60.35,-22.27,-0.16,-1.39,-2.12,0.1686
1.01,-0.2,0.12,2.66,-1.79,-0.01,-11.43,-59.47,-22.56,-0.19,-1.34,-2.11,0.169
1.05,-0.19,0.09,3.55,-1.93,-2.03,-11.13,-60.06,-22.27,-0.18,-1.37,-2.12,0.1694
0.99,-0.17,0.22,-14.01,-42.32,-67.99,-11.43,-59.18,-22.56,-0.16,-1.3,-2.05,0.1698
0.95,-0.43,-0.23,5.06,-18.15,-53.12,-11.72,-59.77,-24.32,-0.41,-1.1,-2.09,0.1702
1.07,-0.33,-0.05,26.22,9.23,17.78,-12.01,-60.06,-23.73,-0.3,-1.27,-2.15,0.1706
1.07,-0.15,0.05,5.5,-2.57,-5.06,-11.13,-59.47,-23.44,-0.14,-1.42,-2.1,0.171
1.01,-0.17,0.06,6.56,-14.08,-21.68,-11.72,-60.06,-22.85,-0.16,-1.4,-2.13,0.1714
1.04,-0.11,0.15,0.98,-9.1,-2.43,-11.43,-60.06,-23.14,-0.11,-1.39,-2.04,0.1718
1.18,-0.11,-0.01,8.89,-19.6,-27.37,-12.6,-60.35,-24.9,-0.09,-1.48,-2.1,0.1722
1.04,-0.07,0.06,11.21,-0.73,-5.79,-12.6,-59.47,-23.73,-0.07,-1.49,-2.09,0.1726
1.06,-0.07,0.1,1.86,1.5,-1.36,-12.89,-60.35,-24.61,-0.07,-1.45,-2.06,0.173
1.05,-0.11,0.03,0.01,2.61,0.43,-12.3,-59.18,-23.73,-0.1,-1.47,-2.11,0.1734
1.05,-0.08,0.06,1.05,4.69,11.78,-12.01,-60.35,-23.73,-0.07,-1.48,-2.08,0.1738
1.04,-0.12,0.04,-0.06,-13.53,2.41,-13.18,-59.77,-24.02,-0.12,-1.45,-2.13,0.1742
1.09,-0.11,0.08,-8.49,-13.52,2.4,-12.01,-59.77,-24.9,-0.1,-1.45,-2.07,0.1746
1.16,-0.1,-0.01,-0.97,12.47,15.32,-11.43,-59.77,-24.61,-0.08,-1.49,-2.07,0.175
0.74,-0.17,0.15,-15.45,27.22,27.79,-10.25,-60.64,-22.85,-0.22,-1.27,-2.06,0.1754
0.94,-0.26,0.17,18.54,5.61,-24.83,-10.55,-60.35,-23.14,-0.27,-1.25,-2.09,0.1758
1.05,-0.26,0.16,-10.57,2.65,11.0,-9.67,-60.64,-21.97,-0.24,-1.29,-2.09,0.1762
1.04,-0.24,0.2,33.23,36.1,50.3,-9.08,-60.06,-22.27,-0.23,-1.28,-2.05,0.1766
0.95,-0.26,0.13,7.48,-38.25,-27.59,-9.96,-59.18,-22.85,-0.26,-1.28,-2.09,0.177
1.09,-0.19,0.02,-6.89,-21.71,-5.05,-10.84,-59.18,-23.44,-0.18,-1.39,-2.11,0.1774
0.99,-0.22,0.12,-6.57,-21.13,-7.01,-9.67,-60.64,-24.32,-0.21,-1.32,-2.07,0.1778
1.05,-0.23,0.02,-5.17,-11.95,-8.42,-9.38,-60.06,-24.61,-0.22,-1.35,-2.08,0.1782
1.08,-0.23,0.01,-6.65,-8.93,-5.8,-11.72,-59.18,-25.2,-0.21,-1.36,-2.12,0.1786
1.06,-0.23,0.03,-6.03,-2.81,-6.3,-10.55,-59.18,-24.9,-0.21,-1.35,-2.1,0.179
1.1,-0.22,-0.03,-0.89,-0.43,-6.52,-10.55,-58.59,-25.49,-0.2,-1.37,-2.08,0.1794
1.03,-0.22,0.02,2.13,-0.88,-7.74,-10.84,-59.77,-25.49,-0.21,-1.36,-2.1,0.1798
1.04,-0.23,0.04,-0.08,-4.44,-9.76,-11.13,-59.18,-24.9,-0.22,-1.35,-2.11,0.1802
1.08,-0.19,0.08,-15.25,-0.08,-14.16,-10.55,-60.06,-24.61,-0.18,-1.38,-2.08,0.1806
1.07,-0.23,-0.07,-3.76,-3.62,-13.73,-10.55,-58.59,-24.02,-0.21,-1.35,-2.1,0.181
1.05,-0.19,-0.02,5.68,0.05,0.4,-9.96,-59.77,-24.32,-0.18,-1.39,-2.08,0.1814
1.04,-0.2,-0.03,8.22,-4.29,1.31,-11.13,-60.35,-24.61,-0.19,-1.38,-2.11,0.1818
1.13,-0.18,0.03,-1.05,10.54,9.7,-11.13,-59.77,-24.61,-0.16,-1.41,-2.1,0.1822
1.1,-0.21,-0.07,4.14,-4.62,0.11,-11.72,-60.06,-24.9,-0.19,-1.37,-2.11,0.1826
1.06,-0.21,0.0,3.45,-10.0,-8.97,-10.84,-59.47,-25.2,-0.2,-1.37,-2.1,0.183
1.07,-0.21,-0.02,4.4,-6.07,-1.79,-10.84,-58.59,-24.9,-0.19,-1.38,-2.1,0.1834
1.06,-0.19,0.01,4.02,-9.14,-5.07,-10.84,-59.47,-25.49,-0.18,-1.39,-2.09,0.1838
1.08,-0.19,-0.03,3.45,-11.07,-10.36,-12.01,-59.47,-24.9,-0.18,-1.39,-2.12,0.1842
1.1,-0.19,-0.06,5.76,-7.17,-4.87,-11.43,-59.47,-25.49,-0.17,-1.39,-2.09,0.1846
1.05,-0.18,-0.01,3.59,-5.82,-3.36,-12.01,-59.77,-25.78,-0.17,-1.4,-2.11,0.185
1.1,-0.17,-0.05,2.94,-3.96,-1.2,-12.01,-59.18,-26.07,-0.15,-1.41,-2.09,0.1854
1.01,-0.17,0.01,1.3,-8.83,-3.89,-11.72,-59.47,-25.78,-0.17,-1.4,-2.1,0.1858
1.07,-0.18,-0.03,0.77,2.58,7.71,-10.55,-59.18,-26.37,-0.17,-1.4,-2.06,0.1862
1.08,-0.18,-0.04,0.98,-3.59,0.8,-11.72,-60.06,-26.07,-0.17,-1.4,-2.09,0.1866
1.07,-0.2,-0.04,4.42,-3.68,-3.77,-9.96,-59.77,-25.78,-0.18,-1.38,-2.06,0.187
1.1,-0.18,-0.07,9.25,12.72,4.5,-10.84,-59.18,-24.9,-0.16,-1.39,-2.08,0.1874
1.1,-0.19,-0.01,5.54,6.37,0.05,-11.13,-59.47,-25.2,-0.18,-1.39,-2.1,0.1877
1.07,-0.18,-0.0,3.16,-2.6,2.85,-11.13,-60.35,-25.78,-0.17,-1.4,-2.09,0.1881
1.09,-0.19,-0.02,2.56,-0.86,2.48,-11.43,-60.06,-25.2,-0.18,-1.39,-2.1,0.1885
1.08,-0.2,-0.01,1.38,-0.52,-0.02,-11.43,-59.18,-25.2,-0.19,-1.38,-2.11,0.1889
1.08,-0.2,-0.01,2.08,2.39,1.95,-11.13,-59.77,-26.07,-0.18,-1.39,-2.09,0.1893
1.08,-0.19,-0.06,6.79,11.76,-1.36,-10.55,-59.18,-24.9,-0.17,-1.39,-2.08,0.1897
1.04,-0.2,0.01,6.84,6.86,5.46,-11.72,-60.06,-24.61,-0.19,-1.38,-2.12,0.1901
1.06,-0.2,0.05,4.09,0.14,3.98,-11.13,-60.06,-24.61,-0.19,-1.38,-2.1,0.1905
1.07,-0.21,0.03,1.49,-0.92,2.83,-10.55,-59.77,-24.32,-0.19,-1.38,-2.1,0.1909
1.09,-0.22,0.01,2.07,-0.92,-0.8,-10.84,-60.06,-24.61,-0.2,-1.37,-2.1,0.1913
1.06,-0.22,0.01,0.82,-0.8,-1.95,-10.84,-60.06,-25.2,-0.2,-1.37,-2.1,0.1917
1.09,-0.2,-0.02,3.58,0.83,1.68,-10.25,-59.47,-24.61,-0.18,-1.39,-2.09,0.192
1.03,-0.21,0.01,1.89,-2.13,-1.5,-10.84,-59.77,-24.9,-0.2,-1.37,-2.1,0.1924
1.08,-0.22,0.01,3.23,-2.75,-0.37,-11.13,-60.06,-24.32,-0.2,-1.37,-2.11,0.1928
1.07,-0.22,0.01,3.58,-2.4,-0.71,-11.13,-60.35,-24.9,-0.2,-1.37,-2.11,0.1933
1.09,-0.2,0.02,5.98,-4.19,-5.8,-11.13,-60.64,-24.9,-0.18,-1.39,-2.1,0.1937
1.07,-0.21,0.0,2.33,-4.94,-1.08,-10.84,-59.77,-24.61,-0.19,-1.38,-2.1,0.194
1.06,-0.21,0.02,2.85,-1.83,-1.03,-10.25,-59.47,-25.2,-0.2,-1.37,-2.08,0.1944
1.07,-0.19,-0.01,3.26,-1.34,-0.67,-10.25,-59.77,-25.2,-0.18,-1.39,-2.08,0.1948
1.06,-0.21,-0.02,2.07,-1.98,2.33,-10.25,-59.47,-24.61,-0.19,-1.38,-2.09,0.1952
1.11,-0.2,-0.01,1.75,1.36,3.29,-10.55,-60.06,-24.9,-0.18,-1.4,-2.09,0.1956
1.08,-0.2,-0.01,5.2,0.17,0.37,-10.84,-60.06,-25.49,-0.18,-1.39,-2.09,0.196
1.03,-0.19,0.0,4.72,0.37,0.44,-12.01,-60.35,-25.78,-0.18,-1.39,-2.11,0.1964
1.05,-0.21,0.01,8.45,-1.41,5.55,-10.25,-59.77,-25.2,-0.19,-1.38,-2.08,0.1968
1.07,-0.24,0.02,0.46,2.13,9.62,-10.84,-59.77,-25.49,-0.22,-1.35,-2.1,0.1972
1.1,-0.24,-0.02,1.98,-0.67,3.91,-10.84,-60.35,-24.9,-0.22,-1.35,-2.11,0.1976
1.07,-0.22,-0.01,5.17,-1.74,-1.17,-10.25,-59.47,-25.49,-0.21,-1.36,-2.08,0.198
1.05,-0.22,-0.0,3.37,-0.1,0.34,-11.13,-60.35,-24.9,-0.21,-1.36,-2.11,0.1984
1.07,-0.21,-0.01,1.79,-2.89,0.34,-10.55,-59.77,-25.49,-0.19,-1.38,-2.09,0.1988
1.05,-0.22,-0.01,3.13,-1.56,1.34,-10.84,-59.77,-24.9,-0.21,-1.36,-2.1,0.1991
1.08,-0.22,-0.01,2.14,-2.23,0.54,-10.55,-60.06,-24.32,-0.21,-1.37,-2.1,0.1995
1.07,-0.24,-0.01,1.74,-0.47,0.29,-10.55,-59.77,-24.9,-0.22,-1.35,-2.1,0.1999
1.06,-0.24,-0.02,2.07,-1.5,-1.63,-9.67,-60.06,-24.61,-0.22,-1.35,-2.09,0.2003
1.05,-0.22,-0.01,1.68,-1.65,0.14,-10.55,-60.06,-25.2,-0.21,-1.36,-2.09,0.2007
1.06,-0.22,-0.02,4.92,-1.4,1.0,-10.55,-60.06,-25.49,-0.2,-1.37,-2.09,0.2011
1.05,-0.24,0.01,3.56,-0.59,0.52,-10.55,-59.47,-25.49,-0.23,-1.34,-2.09,0.2015
1.07,-0.25,-0.01,2.02,0.02,2.52,-10.55,-59.77,-24.9,-0.23,-1.34,-2.1,0.2019
1.07,-0.25,-0.02,0.43,-3.24,-0.5,-10.25,-58.89,-25.2,-0.23,-1.34,-2.09,0.2033
1.07,-0.25,-0.04,5.38,-2.79,-4.36,-9.96,-60.06,-25.49,-0.23,-1.34,-2.08,0.2041
1.04,-0.24,-0.0,3.8,-1.25,-4.3,-10.25,-59.77,-25.2,-0.23,-1.34,-2.09,0.2045
1.04,-0.24,-0.02,-7.38,-21.95,-5.97,-10.55,-59.77,-26.07,-0.22,-1.35,-2.09,0.2049
1.01,-0.22,-0.06,9.61,-17.01,-10.62,-11.13,-60.35,-25.49,-0.22,-1.35,-2.1,0.2053
1.15,-0.25,0.05,-1.06,-24.68,-26.76,-10.55,-59.18,-26.66,-0.21,-1.35,-2.07,0.2057
0.94,-0.25,-0.1,11.21,-17.32,-59.3,-10.84,-59.18,-26.07,-0.25,-1.3,-2.08,0.2061
1.17,-0.14,-0.01,3.94,70.53,-14.75,-11.13,-60.35,-24.61,-0.12,-1.45,-2.08,0.2065
1.0,-0.17,0.02,27.93,71.38,-12.7,-10.55,-60.35,-22.85,-0.16,-1.41,-2.11,0.2069
0.84,-0.21,0.14,9.75,27.24,4.29,-10.55,-59.77,-22.56,-0.24,-1.28,-2.09,0.2073
1.05,-0.21,0.19,3.27,2.92,-20.77,-11.43,-59.77,-22.56,-0.2,-1.31,-2.09,0.2076
1.06,-0.11,0.03,22.13,28.34,10.41,-11.43,-59.47,-22.27,-0.1,-1.47,-2.11,0.208
0.99,-0.12,0.22,6.0,21.64,13.86,-11.13,-59.18,-21.09,-0.12,-1.32,-2.03,0.2084
0.96,-0.17,0.26,6.83,4.62,-2.66,-11.43,-59.18,-21.09,-0.17,-1.26,-2.04,0.2088
0.99,-0.15,0.24,8.5,-0.6,-7.59,-11.13,-59.77,-21.39,-0.14,-1.29,-2.03,0.2092
0.94,-0.11,0.24,9.34,0.23,-17.6,-11.13,-59.18,-21.09,-0.12,-1.29,-2.01,0.2096
0.96,-0.06,0.28,-1.95,-1.18,-5.14,-11.72,-59.77,-20.51,-0.06,-1.29,-1.95,0.21
1.03,-0.09,0.22,-1.52,-4.67,14.41,-12.3,-60.06,-20.8,-0.09,-1.35,-2.04,0.2104
0.98,-0.1,0.24,-2.83,-8.77,-9.42,-10.84,-59.77,-21.68,-0.1,-1.31,-1.99,0.2108
0.99,-0.17,0.17,3.01,-11.39,1.63,-11.13,-59.47,-21.09,-0.17,-1.34,-2.09,0.2112
1.03,-0.14,0.16,-3.6,-8.67,3.4,-11.72,-59.47,-21.39,-0.13,-1.37,-2.09,0.2116
1.01,-0.13,0.2,-1.04,-6.21,3.72,-11.43,-58.89,-21.68,-0.12,-1.34,-2.05,0.212
1.0,-0.14,0.2,-4.42,-8.61,0.85,-11.72,-59.47,-21.68,-0.14,-1.33,-2.06,0.2124
1.04,-0.16,0.17,-4.46,-9.01,-2.94,-11.72,-59.77,-21.97,-0.15,-1.35,-2.09,0.2128
1.04,-0.15,0.14,-3.37,-5.33,-6.36,-12.01,-60.06,-22.27,-0.15,-1.37,-2.1,0.2132
1.03,-0.14,0.17,2.88,-5.38,-0.9,-11.43,-59.77,-21.39,-0.14,-1.36,-2.08,0.2136
1.1,-0.1,0.15,0.79,-2.85,-1.37,-12.01,-59.77,-21.97,-0.09,-1.41,-2.06,0.214
1.04,-0.13,0.18,-1.34,-12.76,-12.33,-12.3,-60.06,-22.27,-0.12,-1.36,-2.07,0.2144
1.11,-0.04,0.13,-3.88,-29.88,-15.83,-13.18,-59.18,-22.56,-0.03,-1.45,-2.04,0.2148
1.08,-0.02,0.1,0.72,-37.65,-46.24,-13.18,-58.59,-24.61,-0.02,-1.47,-2.01,0.2152
1.03,-0.05,0.1,13.08,-98.85,16.22,-13.77,-59.18,-25.49,-0.05,-1.47,-2.05,0.2156
1.08,-0.08,-0.02,7.18,-118.32,36.45,-13.18,-57.71,-27.25,-0.08,-1.49,-2.07,0.216
1.23,-0.18,-0.28,41.51,-74.6,35.32,-11.13,-57.71,-29.3,-0.14,-1.31,-1.96,0.2164
0.96,-0.26,-0.19,2.77,-89.88,51.33,-9.96,-56.84,-29.59,-0.26,-1.25,-2.0,0.2168
1.1,-0.4,-0.55,44.5,-106.63,50.75,-9.08,-55.08,-31.93,-0.32,-1.02,-1.88,0.2173
1.02,-0.44,-0.52,59.88,-77.43,13.35,-8.5,-54.2,-32.81,-0.37,-0.98,-1.87,0.2177
0.79,-0.38,-0.56,24.06,-61.45,71.28,-5.86,-51.86,-33.4,-0.38,-0.86,-1.77,0.2181
0.92,-0.47,-0.56,12.73,-57.82,119.51,-5.86,-50.98,-34.28,-0.41,-0.9,-1.78,0.2185
0.8,-0.58,-0.64,10.64,-19.8,89.91,-4.39,-50.68,-33.98,-0.52,-0.75,-1.71,0.2189
0.57,-0.82,-0.63,7.62,-26.03,76.68,-4.39,-50.1,-35.16,-0.77,-0.5,-1.55,0.2193
0.46,-0.75,-0.76,-0.24,-53.03,49.53,-3.52,-48.34,-34.86,-0.7,-0.41,-1.48,0.2196
0.33,-0.67,-0.69,13.37,-82.47,-29.73,-3.52,-48.05,-35.74,-0.72,-0.33,-1.41,0.2201
-0.18,-0.85,-0.3,109.21,-250.0,-181.14,-2.64,-46.0,-35.45,-1.18,0.2,-0.77,0.2205
0.67,0.46,-0.48,-121.17,-43.24,-201.34,-4.39,-46.29,-37.5,0.51,-0.79,-1.58,0.2209
1.19,-0.52,-1.0,21.0,54.15,-250.0,-6.45,-46.58,-37.5,-0.32,-0.81,-1.72,0.2213
0.43,-0.25,-0.73,127.36,14.31,249.99,-3.81,-46.0,-36.62,-0.29,-0.51,-1.59,0.2217
0.75,-0.88,-0.7,-3.91,21.77,66.38,-0.88,-43.95,-35.16,-0.71,-0.59,-1.53,0.2221
0.57,-0.9,-0.75,101.88,104.58,142.54,0.59,-42.77,-33.11,-0.76,-0.45,-1.42,0.2225
0.15,-0.9,-0.49,50.71,-7.26,62.54,0.88,-42.19,-33.69,-1.05,-0.15,-1.1,0.2229
0.3,-1.03,-0.58,72.25,-41.67,59.56,0.88,-39.84,-32.52,-1.01,-0.25,-1.18,0.2233
0.03,-0.77,-0.32,26.8,-43.79,46.71,1.76,-39.84,-31.05,-1.17,-0.03,-0.97,0.2237
0.16,-0.96,-0.42,10.33,23.28,70.92,1.46,-39.26,-31.64,-1.13,-0.15,-1.08,0.2241
-0.24,-0.98,-0.3,-12.14,32.37,46.59,0.0,-38.67,-31.64,-1.2,0.23,-0.69,0.2245
-0.15,-1.08,-0.54,15.05,18.07,30.61,1.76,-38.09,-31.64,-1.09,0.12,-0.8,0.2248
-0.32,-0.85,-0.38,23.23,20.22,17.25,1.46,-37.5,-31.05,-1.04,0.33,-0.61,0.2252
-0.12,-0.87,-0.33,10.48,27.28,3.36,1.17,-37.79,-31.05,-1.19,0.13,-0.79,0.2256
-0.14,-0.95,-0.4,8.95,-1.86,-24.65,2.05,-37.5,-31.35,-1.15,0.14,-0.77,0.226
-0.15,-0.97,-0.4,14.54,-9.06,-18.17,2.05,-38.09,-31.35,-1.15,0.15,-0.77,0.2264
-0.09,-0.86,-0.32,-2.24,-24.51,-3.17,1.46,-37.79,-31.05,-1.2,0.1,-0.81,0.2268
-0.07,-0.91,-0.38,-4.34,-20.65,23.99,2.05,-37.21,-31.35,-1.17,0.08,-0.82,0.2272
-0.18,-0.87,-0.34,-16.95,-34.32,7.0,1.17,-37.5,-31.64,-1.15,0.19,-0.72,0.2276
-0.17,-0.8,-0.34,-7.08,-19.07,-9.05,0.59,-36.91,-30.76,-1.12,0.19,-0.73,0.228
-0.13,-0.89,-0.34,-12.21,-8.53,-47.52,1.46,-37.21,-31.35,-1.18,0.13,-0.77,0.2284
-0.05,-1.0,-0.43,1.94,3.01,-21.48,1.17,-38.67,-32.23,-1.16,0.05,-0.86,0.2288
-0.08,-0.88,-0.36,-1.78,-4.82,-7.77,0.88,-38.09,-31.35,-1.17,0.08,-0.84,0.2291
-0.1,-0.94,-0.46,3.47,-7.35,0.72,1.76,-38.09,-31.05,-1.11,0.09,-0.84,0.2295
-0.07,-0.94,-0.39,6.57,-3.25,-10.24,0.88,-37.79,-31.35,-1.17,0.07,-0.85,0.2299
-0.06,-0.97,-0.39,24.49,-4.23,-55.73,2.05,-38.96,-31.05,-1.18,0.05,-0.87,0.2303
-0.05,-0.9,-0.36,29.82,-2.01,-48.73,2.34,-39.26,-30.76,-1.19,0.05,-0.87,0.2307
0.07,-0.95,-0.34,39.43,-7.75,-67.15,2.34,-41.02,-30.18,-1.22,-0.07,-1.02,0.2311
0.18,-1.0,-0.31,30.85,-4.5,-47.84,2.93,-42.19,-29.0,-1.22,-0.17,-1.15,0.2315
0.25,-0.88,-0.22,20.13,-26.7,-45.73,2.34,-42.77,-29.0,-1.21,-0.27,-1.25,0.2319
0.24,-0.95,-0.24,25.74,-4.61,-54.7,2.64,-43.65,-28.71,-1.23,-0.24,-1.23,0.2323
0.44,-0.9,-0.25,24.54,-24.89,-75.33,2.64,-44.82,-28.42,-1.06,-0.44,-1.44,0.2327
0.52,-0.88,-0.19,16.2,-18.88,-68.86,3.22,-46.88,-27.83,-1.01,-0.52,-1.53,0.2331
0.6,-0.88,-0.17,8.23,3.3,-107.43,2.05,-47.46,-27.54,-0.95,-0.59,-1.6,0.2335
0.61,-0.82,-0.2,-16.64,12.41,-96.87,0.88,-49.51,-28.12,-0.9,-0.63,-1.65,0.2339
0.63,-0.76,-0.19,-33.44,-6.37,-92.87,0.29,-50.98,-28.42,-0.85,-0.68,-1.7,0.2343
0.88,-0.66,-0.21,-10.46,-12.36,-66.75,-0.88,-52.15,-29.0,-0.63,-0.91,-1.83,0.2347
0.93,-0.62,-0.28,21.42,-21.86,-49.8,-0.88,-52.44,-28.71,-0.57,-0.94,-1.83,0.2351
0.99,-0.51,-0.27,35.14,-19.7,-47.45,-1.17,-52.73,-28.71,-0.46,-1.04,-1.85,0.2355
0.91,-0.42,-0.27,6.36,-43.03,-67.9,-2.93,-52.44,-29.0,-0.41,-1.07,-1.87,0.2359
1.03,-0.42,-0.34,2.5,-5.41,-58.53,-3.22,-53.91,-29.59,-0.37,-1.09,-1.86,0.2363
1.03,-0.35,-0.3,-13.96,-0.76,-45.8,-3.22,-54.79,-30.76,-0.31,-1.15,-1.85,0.2367
0.93,-0.34,-0.37,3.08,-37.06,15.27,-3.81,-53.91,-30.47,-0.33,-1.08,-1.84,0.2371
1.0,-0.29,-0.34,2.2,-38.79,-18.52,-3.81,-53.61,-30.76,-0.27,-1.15,-1.83,0.2375
1.02,-0.37,-0.48,8.74,-2.98,-45.6,-5.27,-53.61,-31.05,-0.32,-1.04,-1.83,0.2379
0.92,-0.19,-0.33,4.62,-11.35,-58.95,-5.57,-53.91,-30.47,-0.19,-1.18,-1.83,0.2383
1.12,-0.15,-0.39,-9.7,4.96,-44.48,-5.86,-54.79,-30.76,-0.13,-1.22,-1.8,0.2387
1.14,-0.17,-0.47,-10.22,-2.03,-32.43,-7.03,-54.49,-31.64,-0.14,-1.15,-1.81,0.2391
1.09,-0.14,-0.44,1.24,-7.23,-12.72,-6.74,-54.49,-31.64,-0.12,-1.17,-1.79,0.2395
1.12,-0.15,-0.46,6.08,-9.76,-4.14,-7.91,-55.08,-31.05,-0.12,-1.16,-1.81,0.2399
1.09,-0.09,-0.44,3.54,-7.58,-2.42,-7.62,-54.79,-31.35,-0.08,-1.18,-1.78,0.2402
1.07,-0.12,-0.48,-2.81,-14.21,-6.92,-7.03,-53.61,-32.23,-0.1,-1.14,-1.77,0.2406
1.12,-0.05,-0.43,6.97,-8.38,-43.71,-7.91,-54.79,-30.76,-0.04,-1.2,-1.77,0.241
1.15,-0.02,-0.5,6.14,17.85,-31.0,-8.79,-54.79,-31.93,-0.02,-1.16,-1.75,0.2414
1.22,0.27,-0.41,-14.45,-3.72,-40.66,-9.08,-54.79,-31.64,0.21,-1.19,-1.59,0.2418
1.08,0.01,-0.5,-2.02,-13.86,-17.02,-9.96,-54.79,-31.93,0.0,-1.13,-1.76,0.2422
1.07,0.01,-0.52,9.8,-9.56,-3.35,-9.08,-54.2,-31.64,0.01,-1.12,-1.74,0.2426
1.1,0.1,-0.46,-2.59,0.92,4.49,-10.25,-55.08,-31.64,0.08,-1.17,-1.71,0.243
1.11,0.09,-0.48,-6.45,-1.67,5.24,-9.38,-53.91,-32.81,0.08,-1.16,-1.7,0.2434
1.13,0.03,-0.51,-0.32,2.4,20.88,-9.67,-54.2,-31.93,0.02,-1.15,-1.74,0.2437
1.16,0.02,-0.48,5.74,-1.6,68.95,-8.2,-54.49,-31.93,0.02,-1.18,-1.72,0.2441
1.25,-0.08,-0.45,46.22,11.97,226.0,-4.39,-53.32,-31.93,-0.06,-1.22,-1.71,0.2445
1.1,-0.27,-0.45,59.3,36.36,220.39,-1.17,-51.56,-30.18,-0.22,-1.13,-1.74,0.2449
0.88,-0.52,-0.37,22.07,14.1,168.52,0.59,-48.63,-29.59,-0.5,-0.95,-1.76,0.2453
0.74,-0.8,-0.38,28.03,12.39,194.12,2.64,-45.7,-29.3,-0.77,-0.7,-1.62,0.2457
0.38,-0.8,-0.27,3.31,5.98,156.36,2.93,-43.36,-29.88,-1.04,-0.42,-1.39,0.2461
0.28,-1.01,-0.35,17.62,13.07,126.32,3.22,-41.02,-29.59,-1.15,-0.25,-1.2,0.2465
0.12,-0.89,-0.26,10.26,44.55,117.15,2.64,-38.96,-29.59,-1.26,-0.13,-1.06,0.2469
0.03,-0.9,-0.26,13.61,60.42,97.77,2.34,-37.79,-29.59,-1.29,-0.04,-0.95,0.2473
0.0,-0.87,-0.27,25.79,118.1,156.14,0.88,-35.45,-30.18,-1.27,-0.0,-0.88,0.2477
-0.41,-0.65,-0.34,10.84,95.99,211.05,-0.29,-33.69,-31.05,-0.89,0.5,-0.41,0.2481
-0.5,-0.7,-0.4,-3.48,46.11,162.5,-2.93,-31.64,-30.76,-0.83,0.56,-0.34,0.2485
-0.66,-0.56,-0.36,-2.65,19.29,120.45,-4.1,-30.18,-30.76,-0.64,0.78,0.01,0.2489
-0.68,-0.48,-0.37,0.21,19.57,92.95,-5.57,-30.18,-32.23,-0.56,0.84,0.21,0.2492
-0.84,-0.34,-0.41,-1.91,-14.71,54.71,-5.86,-29.88,-31.64,-0.35,1.0,0.87,0.2496
-0.93,-0.31,-0.39,13.09,-16.08,27.39,-7.32,-29.0,-31.93,-0.3,1.08,1.24,0.25
-0.82,-0.27,-0.34,12.07,-0.24,3.68,-6.45,-29.0,-31.35,-0.29,1.09,1.2,0.2504
-0.8,-0.24,-0.37,5.42,4.75,-3.3,-6.74,-28.42,-31.93,-0.27,1.07,1.28,0.2508
-0.87,-0.27,-0.44,9.0,1.11,-1.21,-6.45,-28.71,-31.35,-0.27,1.03,1.21,0.2512
-0.83,-0.28,-0.37,12.42,-6.38,-12.53,-6.74,-29.59,-31.35,-0.3,1.06,1.16,0.2516
-0.96,-0.29,-0.43,36.8,-33.75,-82.41,-5.27,-29.88,-31.35,-0.27,1.08,1.17,0.252
-1.13,-0.3,-0.33,88.29,-177.35,-250.0,-0.59,-32.81,-27.83,-0.25,1.19,0.96,0.2524
-0.53,-0.45,-0.1,38.53,-250.0,-250.0,3.52,-39.84,-23.44,-0.69,0.86,-0.26,0.2528
-0.1,-0.78,0.21,3.82,-143.12,-244.42,3.52,-45.41,-23.44,-1.28,0.13,-0.97,0.2532
0.65,-0.67,-0.03,-5.74,-80.14,-250.0,0.88,-51.27,-24.9,-0.8,-0.77,-1.79,0.2536
0.82,-0.57,-0.06,-7.1,-78.12,-250.0,-2.64,-55.08,-26.07,-0.61,-0.96,-1.92,0.254
0.96,-0.16,-0.05,-25.59,-103.77,-224.34,-6.45,-56.25,-27.54,-0.16,-1.4,-1.95,0.2544
1.09,-0.11,-0.33,25.96,-72.61,-124.62,-8.5,-55.96,-28.42,-0.1,-1.26,-1.86,0.2548
1.26,0.19,-0.39,-2.15,-33.97,-45.54,-8.79,-55.37,-28.71,0.15,-1.24,-1.63,0.2552
1.24,0.23,-0.4,2.89,-3.28,20.39,-9.67,-55.66,-28.71,0.17,-1.22,-1.62,0.2556
1.23,0.2,-0.37,-2.96,21.11,78.63,-7.91,-56.25,-28.12,0.16,-1.24,-1.59,0.256
1.12,-0.03,-0.37,-10.1,83.47,146.28,-5.86,-56.25,-27.54,-0.03,-1.25,-1.73,0.2564
1.29,-0.24,-0.3,-27.77,108.48,215.66,-2.93,-54.79,-25.78,-0.18,-1.28,-1.83,0.2568
0.94,-0.52,-0.23,-31.14,93.88,168.56,0.0,-51.86,-25.49,-0.5,-1.03,-1.87,0.2572
0.77,-0.57,-0.11,-22.34,70.84,169.75,1.46,-50.1,-25.49,-0.63,-0.92,-1.83,0.2576
0.79,-0.46,-0.14,-2.01,205.48,249.99,4.1,-43.36,-25.2,-0.52,-1.02,-1.76,0.258
0.14,-0.68,0.16,-37.65,100.09,239.14,3.52,-39.55,-26.66,-1.27,-0.19,-1.17,0.2584
-0.15,-0.95,-0.14,-54.5,110.14,145.57,1.46,-35.74,-28.71,-1.36,0.16,-0.74,0.2588
-0.45,-0.77,-0.3,-8.34,21.97,83.11,0.88,-33.98,-29.59,-0.96,0.49,-0.42,0.2592
-0.48,-0.79,-0.16,1.17,1.43,14.84,0.88,-34.28,-29.0,-1.0,0.54,-0.38,0.2596
-0.58,-0.87,-0.29,8.73,-15.88,-13.44,0.59,-34.86,-28.71,-0.93,0.57,-0.38,0.26
-0.55,-0.86,-0.24,35.33,-50.4,-48.64,1.17,-34.57,-28.42,-0.97,0.55,-0.39,0.2604
-0.58,-0.94,-0.17,48.84,-162.31,-134.33,2.64,-36.91,-25.78,-1.0,0.54,-0.47,0.2608
-0.39,-0.8,-0.11,57.62,-250.0,-250.0,4.39,-43.36,-22.85,-1.1,0.45,-0.66,0.2612
0.68,-0.77,0.1,37.38,-124.43,-204.35,2.64,-47.17,-22.56,-0.84,-0.72,-1.74,0.2616
0.66,-0.53,0.06,-10.91,-116.86,-250.0,1.17,-52.15,-23.73,-0.68,-0.88,-1.85,0.262
0.87,-0.39,-0.11,12.63,-87.8,-160.54,-0.88,-53.91,-25.2,-0.42,-1.14,-1.92,0.2625
0.79,-0.3,-0.16,-28.07,-130.89,-145.74,-2.93,-54.79,-27.54,-0.35,-1.17,-1.91,0.2629
1.0,-0.03,-0.3,-56.17,-107.36,-115.46,-5.27,-55.37,-29.59,-0.03,-1.28,-1.72,0.2633
1.31,-0.08,-0.57,-17.59,-39.92,-61.23,-7.03,-54.2,-30.18,-0.05,-1.16,-1.75,0.2637
1.21,-0.0,-0.52,2.54,7.19,-12.58,-7.03,-55.66,-29.88,-0.0,-1.16,-1.71,0.2641
1.32,0.11,-0.46,12.24,69.82,63.29,-6.15,-55.66,-29.0,0.08,-1.22,-1.63,0.2645
1.1,-0.03,-0.39,27.15,68.43,114.67,-4.1,-55.37,-26.95,-0.02,-1.22,-1.69,0.2649
1.16,-0.23,-0.27,4.01,112.33,137.53,-2.05,-54.79,-26.07,-0.19,-1.27,-1.82,0.2653
0.94,-0.22,-0.12,-8.0,74.71,215.55,1.46,-52.15,-24.9,-0.23,-1.31,-1.79,0.2657
0.7,-0.29,0.09,-46.36,151.3,249.99,2.64,-46.88,-24.9,-0.39,-1.16,-1.81,0.2661
0.52,-0.8,-0.46,40.68,249.99,249.99,3.22,-40.43,-23.14,-0.85,-0.52,-1.52,0.2665
-0.27,-0.79,0.15,-36.92,110.58,175.75,2.64,-36.04,-25.78,-1.2,0.32,-0.65,0.2669
-0.35,-0.82,-0.04,-29.59,54.31,83.21,1.76,-34.86,-26.66,-1.16,0.4,-0.54,0.2673
-0.48,-0.83,-0.06,-10.6,30.96,28.23,0.59,-34.28,-27.54,-1.04,0.52,-0.42,0.2677
-0.49,-0.92,-0.14,8.14,15.95,6.5,1.17,-34.28,-27.83,-1.07,0.48,-0.45,0.2681
-0.45,-0.81,-0.11,16.93,8.29,14.47,1.76,-34.28,-26.95,-1.06,0.5,-0.45,0.2684
-0.46,-0.77,-0.1,13.28,-2.7,13.4,1.17,-33.11,-27.25,-1.03,0.53,-0.4,0.2688
-0.46,-0.73,-0.08,11.51,-0.37,8.35,1.17,-33.69,-27.25,-1.0,0.56,-0.38,0.2692
-0.43,-0.69,-0.03,13.69,13.82,5.56,0.29,-33.4,-26.95,-1.01,0.56,-0.38,0.2696
-0.44,-0.77,-0.06,9.85,24.66,22.16,0.29,-33.11,-27.54,-1.05,0.52,-0.41,0.27
-0.53,-0.7,-0.11,7.36,14.11,8.74,1.17,-33.11,-27.25,-0.91,0.65,-0.29,0.2704
-0.55,-0.68,-0.1,3.07,-5.81,-7.61,0.59,-33.4,-27.25,-0.88,0.67,-0.27,0.2707
-0.53,-0.74,-0.08,9.0,-9.74,-12.89,0.88,-33.4,-26.37,-0.94,0.62,-0.34,0.2711
-0.58,-0.84,-0.07,60.64,-42.29,-93.98,2.34,-35.16,-26.07,-0.96,0.61,-0.38,0.2715
-0.52,-0.66,0.03,101.78,-157.0,-227.06,3.52,-40.14,-22.56,-0.91,0.66,-0.46,0.2719
-0.11,-0.61,0.17,28.99,-250.0,-250.0,2.93,-47.17,-22.85,-1.25,0.18,-0.95,0.2724
1.68,-0.72,-0.46,11.76,-178.38,-234.88,0.88,-51.27,-23.73,-0.39,-1.1,-1.85,0.2728
0.8,-0.43,-0.06,-17.46,-133.56,-104.88,0.0,-52.15,-25.78,-0.49,-1.07,-1.89,0.2733
0.96,-0.45,-0.22,-12.4,-120.03,-102.79,-1.46,-53.91,-27.54,-0.42,-1.09,-1.88,0.2737
1.24,-0.31,-0.33,-13.65,-51.37,-2.4,-2.64,-53.32,-29.0,-0.24,-1.22,-1.83,0.2741
1.17,-0.4,-0.45,-23.69,-30.99,37.73,-2.93,-53.32,-30.76,-0.3,-1.1,-1.81,0.2745
1.19,-0.52,-0.44,5.52,68.68,93.15,-0.88,-52.44,-28.71,-0.39,-1.06,-1.81,0.2749
1.31,-0.54,-0.47,17.6,231.42,141.42,-0.29,-51.86,-25.78,-0.37,-1.07,-1.82,0.2753
1.03,-0.41,-0.03,-137.48,249.99,169.85,1.17,-49.22,-24.9,-0.38,-1.19,-1.86,0.2757
-0.03,-0.71,-0.33,-89.67,142.2,161.85,3.52,-46.88,-26.66,-1.13,0.04,-1.03,0.2761
-0.11,-0.86,-0.11,-72.68,72.24,101.28,3.22,-43.65,-27.25,-1.39,0.12,-0.89,0.2765
-0.1,-1.18,-0.22,9.04,30.4,17.6,3.22,-43.95,-27.25,-1.37,0.09,-0.93,0.2769
-0.11,-0.92,-0.11,16.46,-28.21,-51.24,3.22,-44.53,-27.25,-1.41,0.12,-0.91,0.2773
0.33,-1.11,-0.24,25.54,-53.84,-0.31,3.22,-44.24,-27.83,-1.22,-0.28,-1.28,0.2777
0.36,-0.94,-0.13,-12.83,-83.09,12.09,3.22,-41.6,-27.54,-1.18,-0.36,-1.34,0.2781
-0.01,-0.72,0.05,-27.82,-6.63,152.7,2.64,-38.09,-27.54,-1.51,0.01,-0.93,0.2785
-0.23,-0.85,-0.13,-10.19,99.9,-39.73,2.93,-38.67,-28.71,-1.27,0.26,-0.68,0.2789
-0.43,-1.02,-0.17,-67.4,-179.44,-38.59,1.76,-38.67,-29.88,-1.14,0.4,-0.55,0.2793
-0.06,-0.96,-0.21,-64.67,-229.06,-32.04,1.76,-37.79,-30.47,-1.35,0.06,-0.83,0.2797
0.01,-1.33,-0.2,22.03,-154.91,5.49,2.34,-37.5,-29.59,-1.42,-0.01,-0.91,0.2801
-0.07,-1.16,-0.16,-6.24,-19.64,-6.64,2.64,-36.04,-29.3,-1.42,0.06,-0.83,0.2806
0.1,-0.98,-0.18,53.59,-7.74,-6.32,2.93,-36.62,-28.71,-1.36,-0.1,-1.0,0.281
0.08,-0.75,-0.17,41.71,0.06,8.65,2.64,-36.04,-27.54,-1.32,-0.1,-1.02,0.2813
-0.02,-0.87,-0.33,-1.13,43.14,39.67,2.34,-36.04,-28.71,-1.2,0.02,-0.89,0.2817
-0.04,-0.95,-0.33,6.39,-15.75,15.7,2.34,-35.45,-27.83,-1.23,0.04,-0.88,0.2821
-0.09,-0.98,-0.21,-11.76,46.13,47.63,1.17,-35.16,-29.3,-1.34,0.09,-0.8,0.2825
-0.16,-0.89,-0.35,26.48,-74.03,-37.52,2.34,-35.45,-27.54,-1.16,0.17,-0.77,0.3334
-0.1,-0.86,-0.31,-58.35,-108.36,-16.31,2.05,-35.16,-29.0,-1.21,0.11,-0.8,0.3339
-0.03,-0.89,-0.16,3.52,-50.61,214.41,0.88,-33.11,-29.3,-1.39,0.03,-0.82,0.3343
-0.04,-1.2,-0.36,-26.2,6.5,-44.64,1.46,-34.57,-30.18,-1.28,0.03,-0.84,0.3347
-0.18,-0.68,-0.31,8.49,2.96,-50.99,2.64,-35.74,-30.18,-1.09,0.23,-0.68,0.335
0.04,-0.98,-0.22,-16.48,-14.35,-21.07,2.05,-34.86,-30.76,-1.35,-0.04,-0.9,0.3354
-0.08,-0.89,-0.39,77.95,47.54,56.72,1.17,-35.74,-29.88,-1.15,0.08,-0.83,0.3358
-0.05,-0.96,-0.37,-23.19,-29.47,-50.09,2.05,-36.04,-29.59,-1.2,0.05,-0.86,0.3362
-0.03,-0.94,-0.38,14.4,8.38,-22.23,2.64,-36.04,-29.59,-1.19,0.03,-0.88,0.3366
0.05,-0.92,-0.39,35.12,16.52,19.25,2.05,-36.62,-29.88,-1.17,-0.05,-0.96,0.337
0.02,-0.91,-0.31,25.11,13.92,12.81,3.22,-37.21,-29.3,-1.25,-0.02,-0.93,0.3374
0.01,-0.95,-0.28,25.68,37.09,-13.8,2.64,-37.79,-29.3,-1.28,-0.01,-0.93,0.3378
-0.26,-1.09,-0.36,-6.08,27.78,-10.98,2.05,-37.79,-29.59,-1.19,0.22,-0.71,0.3382
-0.26,-0.81,-0.32,39.1,-27.77,-6.07,2.34,-36.33,-28.12,-1.1,0.29,-0.67,0.3386
0.27,-1.13,0.24,-5.29,-20.22,17.56,2.64,-36.62,-27.54,-1.26,-0.23,-1.16,0.339
-0.04,-0.96,-0.39,2.55,31.16,49.43,2.93,-35.16,-28.12,-1.18,0.03,-0.88,0.3394
-0.33,-0.59,-0.58,17.85,19.9,-36.49,2.05,-36.04,-28.42,-0.73,0.38,-0.69,0.3398
0.24,-1.03,0.11,22.09,-51.25,-63.77,3.22,-36.62,-27.83,-1.32,-0.23,-1.15,0.3402
0.26,-1.16,-0.15,2.46,12.36,38.86,2.34,-36.33,-27.83,-1.32,-0.22,-1.14,0.3407
-0.3,-0.77,-0.42,18.92,15.88,-4.69,2.93,-36.04,-27.25,-0.98,0.33,-0.65,0.3411
0.13,-0.99,-0.01,9.27,0.47,-11.41,3.52,-36.91,-26.95,-1.44,-0.13,-1.06,0.3415
0.08,-1.03,-0.15,3.17,17.06,13.66,2.64,-36.04,-27.25,-1.41,-0.08,-1.0,0.3419
0.02,-0.92,-0.19,5.42,5.13,12.77,2.64,-36.33,-27.83,-1.37,-0.02,-0.94,0.3423
-0.04,-0.92,-0.2,3.27,3.79,7.08,2.93,-35.74,-26.95,-1.35,0.04,-0.88,0.3426
-0.05,-0.94,-0.17,-3.97,9.41,-4.07,2.93,-35.45,-27.54,-1.39,0.05,-0.86,0.343
-0.04,-0.96,-0.15,-9.78,17.32,-4.14,2.34,-34.57,-27.25,-1.41,0.04,-0.87,0.3434
-0.02,-0.94,-0.24,0.21,-1.85,0.94,2.93,-35.16,-26.95,-1.31,0.02,-0.9,0.3438
-0.01,-0.95,-0.22,-1.61,-3.11,4.78,2.34,-34.28,-26.95,-1.34,0.01,-0.9,0.3442
-0.0,-0.94,-0.24,1.15,1.15,-2.93,1.46,-34.57,-27.83,-1.32,0.0,-0.9,0.3446
-0.04,-0.96,-0.21,-2.94,1.3,-0.89,2.05,-34.86,-28.12,-1.35,0.05,-0.85,0.345
-0.02,-0.94,-0.23,1.05,0.84,-0.72,1.46,-34.28,-27.25,-1.32,0.02,-0.88,0.3454
-0.05,-0.94,-0.21,-3.18,0.5,-10.71,2.05,-33.4,-27.54,-1.35,0.05,-0.84,0.3458
0.08,-1.01,-0.17,22.21,-29.67,36.13,1.76,-33.98,-27.25,-1.38,-0.08,-0.98,0.3462
0.01,-0.87,-0.51,81.81,-175.44,91.29,2.93,-33.69,-26.07,-1.04,-0.01,-0.97,0.3466
0.63,-1.08,0.0,11.28,-48.23,-87.05,3.81,-36.91,-26.37,-1.04,-0.53,-1.45,0.347
0.16,-0.54,-0.61,85.16,106.42,173.4,2.93,-34.86,-25.78,-0.71,-0.2,-1.22,0.3474
-0.33,-0.77,0.03,-88.34,-120.25,-184.25,3.52,-36.62,-26.95,-1.17,0.4,-0.55,0.3478
0.45,-1.11,0.18,-28.78,19.15,67.54,3.22,-35.74,-26.66,-1.16,-0.38,-1.3,0.3482
0.15,-0.53,-0.79,53.98,28.6,109.47,2.05,-34.28,-26.37,-0.58,-0.16,-1.24,0.3487
0.07,-1.06,-0.09,38.99,-7.64,90.55,2.93,-32.81,-25.49,-1.46,-0.07,-0.97,0.349
-0.17,-1.27,0.01,4.13,16.85,55.27,2.05,-31.64,-25.2,-1.44,0.13,-0.77,0.3494
-0.36,-1.14,-0.18,9.48,32.17,0.19,1.46,-31.35,-26.66,-1.23,0.3,-0.58,0.3498
-0.25,-1.05,-0.01,13.31,4.2,-43.4,2.05,-32.52,-25.78,-1.33,0.24,-0.67,0.3502
-0.48,-0.89,0.02,-2.41,23.27,-44.64,2.64,-33.69,-26.66,-1.07,0.5,-0.44,0.3506
-0.32,-0.81,0.09,-15.88,28.87,-36.84,3.22,-33.69,-27.54,-1.17,0.38,-0.52,0.351
-0.14,-0.74,-0.09,-9.61,32.06,-39.78,2.34,-34.86,-28.12,-1.35,0.18,-0.71,0.3514
0.07,-0.63,-0.22,37.84,23.73,-26.13,2.05,-35.74,-27.25,-1.22,-0.1,-1.04,0.3518
0.25,-0.69,-0.22,8.63,26.31,-15.37,4.39,-35.16,-25.78,-1.12,-0.33,-1.25,0.3522
0.34,-1.02,-0.31,17.12,1.76,22.52,2.64,-35.16,-26.37,-1.15,-0.31,-1.24,0.3526
0.1,-1.1,-0.08,-4.99,-0.74,59.42,2.64,-34.28,-26.66,-1.45,-0.09,-1.0,0.353
-0.17,-1.25,0.16,-36.9,-5.25,0.1,1.76,-33.4,-27.54,-1.39,0.13,-0.75,0.3533
-0.17,-0.85,-0.32,-7.48,14.82,-17.94,3.22,-33.98,-27.54,-1.17,0.19,-0.72,0.3537
-0.08,-0.71,-0.48,20.44,40.0,-22.21,2.64,-34.86,-27.25,-0.97,0.09,-0.88,0.3541
0.07,-1.07,0.14,29.81,13.73,-44.58,3.22,-35.45,-27.25,-1.43,-0.06,-0.97,0.3545
0.07,-0.99,-0.22,23.61,12.8,-25.78,2.93,-36.33,-26.66,-1.34,-0.07,-1.01,0.3549
0.01,-0.81,-0.47,34.87,36.18,-40.27,3.81,-37.5,-26.37,-1.04,-0.01,-1.0,0.3553
0.2,-0.94,0.2,-8.33,12.44,-5.24,3.81,-37.5,-26.95,-1.28,-0.2,-1.15,0.3557
0.18,-1.05,0.09,-25.34,-21.16,-16.98,3.22,-37.5,-27.54,-1.38,-0.17,-1.1,0.3561
0.09,-0.75,-0.61,25.41,15.59,6.77,3.52,-37.5,-26.66,-0.88,-0.09,-1.1,0.3565
0.06,-0.88,-0.2,29.69,8.68,-20.08,4.1,-37.79,-26.37,-1.34,-0.06,-1.02,0.3569
0.3,-1.15,0.47,8.81,-9.63,-23.15,3.81,-37.79,-25.78,-1.12,-0.24,-1.21,0.3573
0.15,-0.92,-0.17,7.91,4.79,-6.41,4.1,-37.79,-25.49,-1.33,-0.16,-1.13,0.3577
0.04,-0.82,-0.35,22.87,5.53,-2.69,4.1,-38.09,-25.49,-1.16,-0.04,-1.03,0.3581
0.25,-1.01,0.24,0.99,-35.49,18.02,3.22,-36.91,-25.2,-1.23,-0.24,-1.21,0.3585
0.17,-0.98,-0.03,-7.44,-3.9,6.42,3.52,-38.38,-25.78,-1.4,-0.17,-1.14,0.3589
0.12,-0.87,-0.14,7.87,-9.08,-3.11,3.81,-38.09,-25.2,-1.36,-0.13,-1.11,0.3593
0.15,-0.96,-0.03,1.63,3.47,0.19,4.39,-37.5,-24.9,-1.42,-0.15,-1.13,0.3597
0.19,-0.94,-0.03,7.05,-11.6,11.5,3.81,-36.91,-25.78,-1.37,-0.2,-1.16,0.3601
0.16,-0.92,-0.05,1.79,-21.48,17.26,3.81,-36.91,-25.49,-1.39,-0.17,-1.13,0.3605
0.17,-0.93,-0.04,13.61,-42.34,8.95,3.22,-37.21,-25.78,-1.39,-0.18,-1.14,0.3609
0.14,-0.91,-0.07,-19.73,-14.74,34.44,3.22,-35.74,-26.37,-1.41,-0.15,-1.08,0.3613
0.06,-0.96,-0.03,-5.53,-11.27,9.9,2.93,-35.16,-26.07,-1.5,-0.07,-1.0,0.3617
0.02,-0.95,-0.08,-2.7,-14.87,15.58,3.22,-35.45,-26.07,-1.49,-0.02,-0.95,0.3621
0.03,-0.95,-0.07,-1.3,-10.61,2.87,2.93,-34.57,-26.66,-1.49,-0.03,-0.94,0.3625
0.03,-0.92,-0.1,0.04,-6.0,7.09,3.22,-36.33,-27.25,-1.46,-0.03,-0.96,0.3628
0.01,-0.93,-0.11,14.32,-20.01,4.01,3.22,-35.16,-26.07,-1.45,-0.01,-0.94,0.3632
0.01,-0.93,-0.08,24.21,-17.89,-13.53,3.81,-34.28,-25.2,-1.49,-0.01,-0.95,0.3636
0.08,-0.96,-0.01,0.23,-15.86,0.5,2.64,-35.16,-25.2,-1.49,-0.08,-1.03,0.364
0.07,-0.93,-0.06,2.64,-8.54,3.92,3.81,-34.86,-24.9,-1.47,-0.07,-1.02,0.3644
0.03,-0.93,-0.05,4.15,-0.56,0.52,3.22,-34.86,-25.2,-1.51,-0.03,-0.97,0.3648
0.01,-0.93,-0.06,-2.91,5.3,-0.03,3.81,-34.86,-25.49,-1.51,-0.01,-0.95,0.3652
0.04,-0.93,-0.07,6.1,-5.51,0.62,3.22,-34.57,-25.2,-1.48,-0.04,-0.98,0.3656
0.04,-0.94,-0.06,8.22,-19.78,6.38,3.22,-34.57,-25.78,-1.49,-0.04,-0.97,0.3659
0.05,-0.95,-0.03,-2.84,-20.42,12.58,3.22,-34.86,-24.9,-1.51,-0.05,-1.0,0.3663
0.06,-0.92,-0.08,-12.96,-17.27,21.52,3.22,-33.98,-25.78,-1.47,-0.06,-0.98,0.3667
-0.03,-0.93,-0.07,-19.75,-40.39,17.94,3.22,-33.98,-26.07,-1.49,0.03,-0.88,0.3672
-0.03,-0.93,-0.09,-8.16,-9.72,23.41,2.64,-33.11,-26.07,-1.47,0.03,-0.87,0.3676
-0.01,-0.94,-0.07,-2.42,-27.31,10.93,2.34,-33.11,-26.95,-1.5,0.01,-0.88,0.368
-0.09,-0.92,-0.11,-1.32,-7.91,9.34,2.64,-32.52,-26.07,-1.42,0.1,-0.8,0.3684
-0.05,-0.93,-0.1,2.11,-8.09,4.92,2.93,-32.23,-25.78,-1.45,0.06,-0.84,0.3688
-0.09,-0.92,-0.1,1.06,-2.91,9.37,1.76,-32.52,-25.78,-1.43,0.1,-0.8,0.3691
-0.08,-0.92,-0.09,-0.48,-5.72,12.33,1.76,-31.35,-25.49,-1.44,0.09,-0.8,0.3695
-0.09,-0.92,-0.09,-0.31,-3.62,13.67,2.34,-32.23,-26.95,-1.43,0.1,-0.77,0.3699
-0.1,-0.91,-0.12,3.17,-4.23,20.53,2.05,-31.64,-26.37,-1.39,0.11,-0.76,0.3703
-0.14,-0.9,-0.11,2.73,3.49,15.72,1.76,-31.35,-26.66,-1.38,0.16,-0.71,0.3707
-0.17,-0.89,-0.13,7.74,6.59,11.73,1.46,-30.76,-26.07,-1.33,0.19,-0.69,0.3711
-0.2,-0.91,-0.09,4.52,-0.2,-1.84,1.46,-31.05,-25.2,-1.33,0.22,-0.68,0.3715
-0.18,-0.89,-0.1,5.02,-1.59,-2.91,1.46,-31.64,-25.78,-1.34,0.2,-0.7,0.3719
-0.17,-0.9,-0.08,2.53,0.04,3.18,1.46,-31.35,-25.78,-1.36,0.19,-0.7,0.3723
-0.16,-0.9,-0.1,2.14,1.12,3.32,0.88,-31.35,-25.49,-1.36,0.18,-0.72,0.3727
-0.17,-0.89,-0.09,1.17,-3.13,1.76,1.46,-30.76,-26.07,-1.36,0.19,-0.69,0.3731
-0.2,-0.89,-0.13,21.97,-3.36,9.16,1.17,-31.35,-25.49,-1.31,0.21,-0.69,0.3735
-0.24,-0.88,-0.11,-32.04,18.06,-0.99,0.88,-31.35,-26.37,-1.28,0.27,-0.62,0.3739
-0.18,-0.89,-0.14,-35.45,13.34,-3.53,0.59,-31.35,-26.66,-1.31,0.2,-0.68,0.3743
-0.19,-0.93,-0.14,27.66,-2.24,-28.12,1.17,-31.05,-26.95,-1.32,0.2,-0.67,0.3747
-0.14,-0.91,-0.18,18.72,9.83,-90.11,2.34,-33.4,-26.66,-1.33,0.15,-0.75,0.3751
-0.04,-0.88,-0.09,-16.69,16.75,-33.84,2.64,-33.98,-26.66,-1.45,0.05,-0.85,0.3755
-0.03,-0.91,-0.15,-23.07,3.75,5.4,2.34,-33.69,-26.95,-1.4,0.04,-0.86,0.3759
0.01,-0.93,-0.14,2.93,7.24,12.02,2.05,-33.4,-26.95,-1.42,-0.01,-0.9,0.3763
-0.04,-0.94,-0.17,9.14,15.49,1.61,2.05,-33.11,-27.54,-1.39,0.04,-0.83,0.3766
-0.05,-0.94,-0.15,19.34,3.75,6.04,1.46,-33.11,-27.54,-1.4,0.06,-0.82,0.377
-0.06,-0.88,-0.17,0.6,1.01,7.11,2.64,-32.81,-26.37,-1.36,0.07,-0.83,0.3774
-0.07,-0.94,-0.14,-4.13,5.07,0.53,2.05,-33.11,-26.37,-1.4,0.08,-0.82,0.3778
-0.1,-0.93,-0.17,1.09,-4.59,-5.49,1.76,-32.81,-27.54,-1.36,0.1,-0.78,0.3782
-0.05,-0.91,-0.15,-4.55,2.69,-3.57,2.64,-33.11,-26.95,-1.4,0.06,-0.83,0.3786
-0.06,-0.93,-0.17,-13.99,-2.28,-3.48,1.76,-33.4,-27.83,-1.38,0.06,-0.82,0.3789
-0.05,-0.93,-0.19,-2.74,-7.29,-1.71,2.34,-33.69,-27.83,-1.37,0.06,-0.83,0.3793
-0.03,-0.95,-0.2,-4.03,-1.4,-1.91,2.34,-33.11,-26.66,-1.36,0.03,-0.86,0.3797
-0.02,-0.92,-0.19,4.97,-6.72,2.2,1.76,-33.98,-27.54,-1.37,0.02,-0.87,0.3801
-0.04,-0.94,-0.19,2.67,-1.56,-1.76,2.34,-33.11,-27.25,-1.37,0.04,-0.85,0.3805
-0.05,-0.94,-0.19,2.59,-3.37,0.24,2.05,-33.11,-26.95,-1.36,0.05,-0.84,0.3809
-0.06,-0.93,-0.2,5.2,-1.44,1.14,2.05,-33.4,-28.12,-1.35,0.06,-0.82,0.3813
-0.04,-0.93,-0.21,8.64,2.27,0.2,2.64,-33.11,-27.25,-1.35,0.05,-0.84,0.3816
-0.02,-0.94,-0.19,5.59,6.03,2.41,2.64,-33.11,-27.83,-1.38,0.02,-0.85,0.382
-0.06,-0.92,-0.19,3.13,2.86,-0.14,1.76,-33.4,-26.95,-1.35,0.07,-0.83,0.3824
-0.06,-0.94,-0.2,1.01,-2.58,1.62,1.46,-33.11,-27.25,-1.36,0.06,-0.83,0.3828
-0.04,-0.94,-0.19,-2.79,-2.76,1.2,2.34,-32.52,-27.83,-1.37,0.05,-0.82,0.3832
-0.04,-0.93,-0.2,0.33,-1.72,0.14,2.34,-33.4,-27.83,-1.36,0.04,-0.83,0.3835
-0.05,-0.93,-0.21,-0.37,-4.97,2.43,1.76,-32.52,-27.83,-1.34,0.06,-0.81,0.3839
-0.05,-0.94,-0.21,3.03,-4.1,2.25,1.76,-33.69,-27.83,-1.34,0.05,-0.84,0.3843
-0.06,-0.93,-0.21,7.57,-1.72,2.95,2.05,-32.81,-26.95,-1.34,0.06,-0.82,0.3847
-0.06,-0.93,-0.2,8.54,-3.47,0.94,2.64,-33.11,-27.54,-1.35,0.06,-0.82,0.385
-0.07,-0.93,-0.2,9.78,3.33,2.66,2.34,-32.81,-26.66,-1.35,0.07,-0.82,0.3854
-0.08,-0.93,-0.19,3.9,4.47,0.63,2.05,-32.81,-27.54,-1.36,0.08,-0.8,0.3858
-0.07,-0.93,-0.17,5.28,0.81,-1.01,2.05,-33.11,-27.25,-1.37,0.08,-0.81,0.3862
-0.08,-0.93,-0.18,1.75,-0.44,0.13,2.05,-32.52,-26.95,-1.36,0.09,-0.8,0.3865
-0.08,-0.92,-0.19,1.24,-3.11,0.56,1.76,-32.52,-27.54,-1.35,0.08,-0.79,0.3869
-0.07,-0.94,-0.17,2.59,-2.18,-0.2,2.34,-32.23,-27.83,-1.37,0.07,-0.79,0.3873
-0.07,-0.93,-0.18,3.65,-3.43,1.48,2.05,-33.11,-27.25,-1.36,0.07,-0.81,0.3877
-0.08,-0.93,-0.18,7.31,-2.66,-1.54,1.76,-32.81,-27.25,-1.36,0.09,-0.8,0.3881
-0.07,-0.93,-0.17,6.0,-0.02,-1.64,2.05,-32.81,-27.25,-1.37,0.08,-0.81,0.3885
-0.07,-0.94,-0.16,5.2,-0.2,-1.88,2.34,-32.81,-26.95,-1.39,0.08,-0.81,0.3889
-0.07,-0.94,-0.17,2.64,0.3,2.3,1.76,-32.23,-26.66,-1.38,0.08,-0.81,0.3893
-0.08,-0.93,-0.17,-1.09,3.02,2.2,1.46,-33.4,-27.25,-1.37,0.08,-0.81,0.3896
-0.07,-0.94,-0.17,-3.97,-4.96,-0.58,2.34,-32.52,-26.66,-1.38,0.08,-0.81,0.39
-0.07,-0.94,-0.17,-3.53,-2.22,6.13,2.34,-32.52,-27.25,-1.38,0.07,-0.8,0.3904
-0.1,-0.94,-0.19,-3.86,-9.32,2.33,1.17,-32.81,-27.54,-1.35,0.1,-0.78,0.3908
-0.11,-0.94,-0.21,-8.22,-25.04,-2.19,2.34,-32.81,-27.54,-1.32,0.12,-0.76,0.3912
-0.09,-0.95,-0.23,-14.83,22.49,-11.7,1.76,-32.81,-28.12,-1.31,0.1,-0.78,0.3916
-0.11,-0.93,-0.23,-9.36,15.56,6.68,1.46,-32.81,-28.71,-1.3,0.12,-0.75,0.392
-0.0,-0.98,-0.29,-5.68,28.84,9.42,0.88,-31.35,-28.71,-1.28,0.0,-0.84,0.3924
-0.26,-0.9,-0.28,-44.89,20.04,21.43,1.76,-31.64,-29.0,-1.17,0.27,-0.59,0.3927
-0.08,-0.95,-0.36,-4.75,76.68,-71.53,1.76,-33.69,-29.3,-1.2,0.07,-0.8,0.3931
-0.06,-0.95,-0.3,19.43,25.72,-91.09,2.34,-35.45,-29.3,-1.26,0.06,-0.83,0.3935
0.15,-0.98,-0.3,28.73,25.17,-141.01,2.93,-39.26,-29.88,-1.24,-0.14,-1.07,0.3939
0.29,-0.95,-0.26,16.94,6.24,-80.27,3.81,-41.02,-29.3,-1.18,-0.28,-1.23,0.3943
0.4,-0.88,-0.26,18.33,8.72,-105.77,2.64,-43.36,-28.42,-1.07,-0.41,-1.4,0.3947
0.52,-0.85,-0.21,9.37,15.24,-59.18,2.34,-43.36,-28.42,-0.99,-0.54,-1.51,0.3951
0.56,-0.87,-0.21,-0.74,2.29,-40.25,2.05,-44.82,-28.42,-0.96,-0.57,-1.55,0.3955
0.62,-0.83,-0.2,15.23,15.21,-35.79,2.05,-45.41,-27.83,-0.91,-0.63,-1.61,0.3959
0.56,-0.68,-0.2,19.56,-65.4,-50.47,1.76,-47.17,-27.83,-0.85,-0.67,-1.65,0.3963
0.75,-0.67,-0.23,-20.39,-108.67,-17.65,1.46,-46.29,-28.71,-0.7,-0.82,-1.72,0.3967
0.72,-0.81,-0.24,-15.69,-66.56,-113.0,0.88,-46.58,-30.18,-0.82,-0.7,-1.66,0.3971
1.31,-1.46,-0.39,41.16,-48.91,-57.3,1.46,-45.41,-29.88,-0.82,-0.71,-1.65,0.3975
0.63,-0.62,-0.47,1.81,-20.95,63.45,1.46,-44.53,-29.3,-0.66,-0.68,-1.61,0.3979
0.61,-0.59,-0.38,-11.31,-21.97,116.29,2.05,-42.48,-29.59,-0.69,-0.72,-1.61,0.3983
0.45,-0.88,-0.34,-13.31,1.07,59.84,2.64,-41.02,-30.18,-1.0,-0.44,-1.38,0.3987
0.18,-0.81,-0.23,-23.82,-22.3,-57.77,2.05,-41.6,-30.47,-1.23,-0.21,-1.16,0.3991
0.65,-0.8,-0.43,-53.81,-29.37,9.21,1.46,-40.43,-31.35,-0.79,-0.62,-1.52,0.3995
0.62,-0.87,-0.38,-13.17,2.35,8.81,1.17,-39.84,-31.05,-0.87,-0.58,-1.49,0.3999
0.31,-0.24,-0.4,25.32,-73.58,90.13,2.34,-39.84,-30.18,-0.44,-0.59,-1.5,0.4003
0.22,-1.03,-0.28,116.55,-44.69,-28.36,2.34,-40.72,-28.42,-1.24,-0.2,-1.17,0.4007
0.76,-1.12,-0.1,132.78,88.63,-230.32,1.76,-46.29,-24.61,-0.97,-0.6,-1.64,0.4011
0.6,-0.52,-0.03,31.01,-41.93,-160.95,-0.59,-49.8,-24.61,-0.71,-0.86,-1.85,0.4015
1.03,0.4,-0.31,-79.74,-92.01,-138.85,-3.22,-51.86,-27.25,0.36,-1.11,-1.38,0.4019
0.96,0.06,-0.27,-72.01,-9.54,0.9,-2.64,-51.86,-26.37,0.07,-1.29,-1.57,0.4023
0.28,-0.22,-0.36,-107.18,-44.28,61.61,-0.88,-49.22,-26.95,-0.45,-0.58,-1.62,0.4027
0.25,-0.66,-0.27,-90.69,-18.34,77.13,-0.59,-46.29,-28.42,-1.06,-0.34,-1.39,0.4031
-0.07,-0.1,-0.14,-81.25,-149.67,249.99,0.29,-45.12,-28.42,-0.6,0.37,-0.91,0.4035
1.35,-0.64,-0.34,-59.52,24.59,103.32,0.88,-43.65,-28.71,-0.43,-1.08,-1.78,0.4039
0.86,-0.26,-0.23,46.75,-41.09,149.89,1.46,-43.07,-29.88,-0.29,-1.19,-1.72,0.4043
0.27,-0.77,-1.03,157.26,-122.24,7.49,2.93,-39.26,-27.54,-0.63,-0.21,-1.27,0.4054
0.42,-0.96,0.06,64.29,-118.55,50.28,2.64,-38.96,-25.78,-1.15,-0.42,-1.39,0.4064
-0.03,-1.13,-0.26,108.28,-94.7,6.54,1.76,-38.09,-24.02,-1.34,0.03,-0.98,0.4068
-0.86,-0.79,-1.03,-39.52,-51.39,-112.17,3.22,-37.79,-21.97,-0.53,0.59,-0.7,0.4072
0.67,-0.84,0.09,-183.99,98.73,-250.0,2.34,-41.02,-25.78,-0.9,-0.67,-1.62,0.4076
0.21,-0.98,-0.11,-37.75,14.23,-128.55,2.34,-42.77,-25.78,-1.33,-0.21,-1.24,0.408
0.7,-1.08,-0.69,-1.41,3.14,-117.39,0.88,-46.29,-28.71,-0.83,-0.5,-1.52,0.4084
0.77,-0.54,-0.39,-14.53,24.25,145.26,1.17,-43.95,-27.83,-0.56,-0.85,-1.71,0.4088
0.72,-0.83,-0.36,9.52,42.12,78.51,1.46,-42.19,-27.25,-0.8,-0.68,-1.62,0.4092
0.53,-0.76,-0.31,18.35,18.61,55.5,2.64,-41.6,-27.25,-0.89,-0.57,-1.53,0.4096
0.47,-1.02,-0.49,52.58,-81.39,-8.52,2.05,-40.14,-26.07,-0.99,-0.39,-1.39,0.41
0.33,-0.96,-0.47,65.25,57.04,89.68,3.22,-39.55,-25.2,-1.03,-0.3,-1.31,0.4104
0.12,-1.21,-0.13,56.43,-3.81,13.54,3.52,-39.55,-24.32,-1.42,-0.1,-1.11,0.4108
0.88,-2.0,-0.22,-246.48,249.99,-250.0,2.64,-37.5,-26.66,-1.15,-0.41,-1.36,0.4112
0.12,-0.88,-0.19,34.49,28.16,-3.23,3.22,-38.09,-26.37,-1.32,-0.13,-1.09,0.4116
0.12,-0.95,-0.18,58.94,17.46,-68.41,2.93,-38.67,-24.9,-1.35,-0.13,-1.12,0.412
0.24,-0.83,-0.01,-5.68,35.82,40.5,2.64,-37.79,-25.49,-1.29,-0.28,-1.26,0.4124
0.42,-0.81,-0.09,-165.25,59.31,-192.78,2.05,-39.26,-27.54,-1.08,-0.48,-1.43,0.4128
0.26,-0.45,-0.15,-201.29,-10.73,-32.68,1.46,-39.26,-30.76,-0.98,-0.51,-1.43,0.4132
0.32,-0.88,-0.41,-120.07,-21.91,32.35,0.0,-38.09,-32.81,-1.04,-0.32,-1.23,0.4136
0.04,-0.58,-0.57,-136.86,-5.03,86.19,-2.34,-36.33,-35.16,-0.8,-0.04,-1.04,0.414
0.09,-0.56,-0.72,-160.64,-46.2,57.72,-5.57,-34.28,-36.04,-0.66,-0.1,-1.18,0.4145
-0.33,-0.22,-1.21,-250.0,-94.92,53.44,-9.67,-33.4,-37.79,-0.18,0.26,-1.64,0.4149
-0.21,0.16,-0.91,-250.0,-17.91,-1.78,-14.36,-32.81,-37.21,0.17,0.23,-2.31,0.4153
-0.3,0.09,-1.6,-250.0,-4.43,14.37,-19.34,-33.4,-34.86,0.05,0.18,-2.25,0.4157
0.12,0.24,-1.31,-157.62,39.47,-0.85,-21.97,-34.57,-33.11,0.18,-0.09,-2.19,0.4161
0.09,0.42,-1.32,-75.22,23.48,-29.47,-23.14,-34.57,-31.93,0.3,-0.06,-2.28,0.4165
-0.21,0.55,-1.46,102.39,-59.59,-42.36,-21.97,-33.4,-32.81,0.36,0.13,-2.43,0.4169
0.07,0.37,-1.29,249.99,4.23,19.56,-19.04,-33.11,-35.74,0.28,-0.05,-2.24,0.4173
0.4,0.74,-1.35,76.96,127.35,249.99,-16.41,-34.86,-37.5,0.48,-0.26,-2.13,0.4177
-0.67,2.0,-1.02,103.28,33.34,151.37,-9.38,-35.16,-38.38,1.02,0.29,-2.67,0.4181
0.2,-0.15,-1.31,188.14,59.06,71.75,-4.98,-36.62,-37.21,-0.11,-0.15,-1.61,0.4185
0.04,-0.45,-1.08,249.99,-73.56,139.53,0.0,-34.28,-31.05,-0.4,-0.04,-1.26,0.4189
-0.08,-0.76,-0.54,249.99,-100.81,116.07,0.88,-32.23,-26.37,-0.95,0.08,-0.89,0.4193
-0.23,-0.51,-0.03,249.99,-80.71,46.2,0.59,-32.23,-19.04,-1.15,0.42,-0.66,0.4197
-0.33,-0.59,0.25,212.51,-99.67,-34.17,-0.88,-33.69,-15.82,-0.96,0.47,-0.77,0.4202
0.08,-0.44,0.61,87.15,-60.13,-68.43,-0.88,-36.33,-12.3,-0.62,-0.1,-1.46,0.4206
-0.36,-0.5,0.51,40.95,9.9,-11.7,-2.93,-37.5,-11.43,-0.67,0.48,-1.09,0.4209
0.2,-0.11,0.87,-57.37,13.98,2.46,-1.76,-38.96,-12.89,-0.12,-0.22,-1.6,0.4213
0.22,0.05,0.81,-206.44,63.64,7.47,0.29,-37.5,-15.82,0.06,-0.27,-1.57,0.4217
-0.77,0.15,0.39,-39.48,-192.12,-13.2,1.46,-36.91,-17.87,0.17,1.07,-2.8,0.4221
0.53,-0.97,-0.28,-74.83,75.62,-4.43,3.22,-37.5,-23.14,-1.02,-0.48,-1.47,0.4225
0.17,-1.34,-0.34,-97.32,-11.06,-84.9,2.93,-38.09,-26.66,-1.29,-0.12,-1.08,0.423
0.68,-1.03,-0.58,-223.53,-119.34,-105.04,1.17,-38.96,-30.76,-0.86,-0.52,-1.45,0.4234
0.75,-0.9,-0.92,-106.39,-5.7,105.47,-0.59,-37.79,-33.11,-0.65,-0.53,-1.46,0.4238
0.54,-0.9,-0.62,-98.09,104.19,170.34,-2.34,-34.86,-34.86,-0.83,-0.46,-1.36,0.4242
0.46,-0.47,-0.89,-168.51,51.81,74.42,-5.57,-34.57,-36.33,-0.44,-0.43,-1.51,0.4246
-0.1,-0.3,-1.17,-250.0,-54.57,-50.42,-9.67,-34.86,-37.79,-0.25,0.08,-1.55,0.425
0.05,-0.51,-1.42,-250.0,-85.69,-109.66,-15.53,-33.4,-37.5,-0.34,-0.03,-1.64,0.4255
-0.01,0.28,-1.44,-250.0,-88.74,-55.38,-19.92,-31.35,-34.28,0.19,0.01,-2.27,0.4259
0.06,0.35,-1.22,-192.7,0.64,-88.85,-22.85,-31.93,-31.35,0.28,-0.05,-2.3,0.4263
-0.22,0.51,-1.24,-68.55,12.79,2.28,-22.85,-31.93,-31.35,0.39,0.16,-2.49,0.4267
-0.33,0.27,-1.25,17.97,3.29,20.5,-22.85,-32.81,-29.59,0.2,0.25,-2.45,0.4271
-0.12,0.63,-1.08,67.22,-16.51,-2.52,-21.68,-32.23,-31.05,0.53,0.09,-2.46,0.4275
-0.07,0.58,-1.0,28.27,-7.29,4.1,-21.68,-32.23,-31.93,0.53,0.06,-2.44,0.4279
-0.11,0.62,-0.94,3.75,1.27,-5.52,-21.97,-31.64,-31.64,0.58,0.1,-2.49,0.4283
-0.2,0.64,-1.01,-4.46,-2.2,-4.4,-21.97,-31.64,-30.76,0.55,0.17,-2.53,0.4287
-0.12,0.57,-1.05,6.26,4.27,-2.25,-21.68,-31.64,-30.76,0.5,0.1,-2.46,0.429
-0.15,0.58,-1.04,32.5,10.72,-6.52,-21.68,-32.52,-32.23,0.5,0.12,-2.48,0.4295
-0.2,0.51,-1.13,86.27,4.67,-52.94,-19.63,-31.64,-33.11,0.42,0.16,-2.48,0.4298
0.02,0.62,-1.2,115.85,-2.76,46.06,-19.04,-31.35,-34.28,0.47,-0.02,-2.36,0.4302
0.02,0.4,-1.07,38.11,33.05,-11.4,-18.46,-31.05,-34.86,0.35,-0.01,-2.32,0.4306
-0.13,0.23,-1.25,129.63,42.89,32.34,-17.29,-32.52,-36.04,0.18,0.1,-2.27,0.4311
-0.02,0.19,-1.25,49.83,32.05,3.98,-16.41,-31.64,-36.62,0.15,0.01,-2.18,0.4314
-0.04,0.15,-1.23,31.54,21.88,8.18,-14.65,-31.64,-37.21,0.12,0.03,-2.14,0.4318
-0.05,0.1,-1.21,6.77,1.21,10.49,-15.53,-32.81,-37.5,0.09,0.04,-2.11,0.4322
-0.03,0.09,-1.2,-11.12,3.27,22.81,-15.82,-33.11,-36.91,0.07,0.02,-2.09,0.4326
-0.01,0.03,-1.26,21.77,2.3,16.05,-15.53,-33.11,-37.21,0.02,0.01,-2.04,0.433
0.11,-0.03,-1.16,148.04,-36.64,-9.03,-13.48,-32.81,-37.79,-0.03,-0.09,-1.9,0.4334
0.24,0.09,-0.89,-88.71,26.9,-31.09,-14.36,-32.81,-37.79,0.09,-0.26,-1.96,0.4338
-0.02,-0.26,-1.5,81.14,92.61,60.38,-13.77,-34.28,-38.96,-0.17,0.01,-1.77,0.4342
-0.01,-0.08,-1.05,-3.3,3.34,-56.74,-12.89,-34.28,-37.79,-0.07,0.01,-1.86,0.4346
-0.05,-0.09,-1.23,8.84,-56.09,-30.2,-12.01,-33.98,-37.79,-0.08,0.04,-1.84,0.435
0.13,-0.08,-1.3,30.77,-31.46,17.07,-12.01,-32.81,-37.5,-0.06,-0.1,-1.84,0.4354
0.14,-0.07,-1.32,-25.14,37.38,12.5,-12.89,-33.69,-37.79,-0.05,-0.11,-1.86,0.4358
0.06,-0.13,-1.21,-12.94,50.53,27.51,-12.89,-33.69,-37.21,-0.1,-0.05,-1.82,0.4362
-0.02,-0.18,-1.2,2.08,-6.47,-3.68,-12.6,-33.98,-37.79,-0.15,0.01,-1.77,0.4366
0.06,-0.13,-1.18,26.77,-40.6,-7.04,-12.89,-33.98,-38.67,-0.11,-0.05,-1.81,0.437
0.15,-0.07,-1.21,-25.51,-10.87,27.15,-12.3,-33.4,-37.5,-0.05,-0.12,-1.84,0.4374
0.1,-0.18,-1.35,7.95,11.73,-4.1,-14.36,-33.4,-38.96,-0.13,-0.07,-1.83,0.4378
0.06,-0.11,-1.27,-7.77,12.73,-62.56,-13.48,-33.98,-37.79,-0.09,-0.05,-1.85,0.4382
0.09,-0.08,-1.2,55.13,22.99,-4.47,-12.6,-34.28,-38.38,-0.06,-0.08,-1.84,0.4386
0.04,-0.03,-1.24,-21.73,-11.31,-10.82,-12.3,-34.28,-38.09,-0.03,-0.03,-1.88,0.4391
0.07,-0.08,-1.23,-9.16,-11.49,40.45,-12.89,-33.4,-37.79,-0.07,-0.06,-1.86,0.4395
0.1,-0.15,-1.23,-17.12,-21.29,13.54,-13.48,-33.98,-38.38,-0.12,-0.08,-1.81,0.4399
0.13,-0.16,-1.23,9.46,0.96,0.32,-12.89,-33.98,-38.09,-0.12,-0.11,-1.79,0.4403
0.13,-0.15,-1.23,39.16,15.65,-14.61,-12.89,-34.28,-38.09,-0.12,-0.1,-1.8,0.4408
0.08,-0.08,-1.22,-9.0,9.84,-22.78,-12.6,-33.4,-38.09,-0.06,-0.07,-1.85,0.4412
0.06,-0.12,-1.25,14.79,6.71,11.51,-12.89,-34.57,-38.09,-0.09,-0.05,-1.82,0.4416
0.05,-0.13,-1.27,-10.25,-8.46,3.86,-12.89,-34.28,-38.38,-0.1,-0.04,-1.82,0.442
0.11,-0.12,-1.2,0.07,-13.04,3.35,-12.6,-34.28,-38.67,-0.1,-0.09,-1.8,0.4424
0.11,-0.14,-1.23,-6.23,-9.66,-5.59,-13.77,-33.69,-38.09,-0.11,-0.09,-1.83,0.4428
0.13,-0.14,-1.2,-17.72,15.85,-4.49,-13.48,-33.98,-37.79,-0.11,-0.11,-1.82,0.4432
0.06,-0.17,-1.31,32.42,11.69,-30.6,-12.3,-34.28,-38.09,-0.13,-0.05,-1.78,0.4436
0.11,-0.03,-1.16,-15.56,17.04,-20.54,-13.77,-34.28,-38.38,-0.03,-0.1,-1.9,0.444
0.07,-0.11,-1.24,4.49,-5.07,21.54,-13.48,-34.28,-38.38,-0.09,-0.05,-1.85,0.4444
0.09,-0.1,-1.26,5.74,-41.77,-17.9,-13.48,-34.28,-37.79,-0.08,-0.07,-1.85,0.4448
0.16,-0.05,-1.27,-4.36,-15.24,-12.41,-12.6,-33.4,-38.09,-0.04,-0.13,-1.86,0.4452
0.17,-0.08,-1.27,7.43,38.7,13.87,-13.48,-34.57,-38.38,-0.06,-0.14,-1.85,0.4456
0.05,-0.11,-1.26,-5.57,20.14,-24.06,-13.48,-34.57,-38.67,-0.09,-0.04,-1.85,0.446
0.03,-0.09,-1.21,5.0,-12.12,-17.59,-13.48,-34.28,-37.5,-0.08,-0.03,-1.86,0.4464
0.08,-0.07,-1.23,24.73,-27.82,-1.16,-13.18,-34.86,-38.67,-0.06,-0.07,-1.86,0.4468
0.12,-0.05,-1.29,-18.65,-9.51,16.56,-12.6,-33.69,-37.79,-0.04,-0.1,-1.86,0.4473
0.14,-0.1,-1.24,-22.74,19.66,34.26,-13.77,-34.57,-38.38,-0.08,-0.11,-1.85,0.4477
0.09,-0.18,-1.25,0.37,8.44,7.93,-13.18,-33.69,-37.5,-0.14,-0.07,-1.79,0.448
0.12,-0.13,-1.19,28.56,-9.22,-25.25,-12.89,-34.86,-38.38,-0.11,-0.1,-1.8,0.4484
0.13,-0.08,-1.23,18.22,-2.01,-21.0,-13.18,-33.69,-38.67,-0.07,-0.11,-1.85,0.4488
0.12,-0.07,-1.25,9.25,10.32,-2.66,-12.89,-34.28,-38.09,-0.05,-0.1,-1.85,0.4492
0.1,-0.07,-1.24,-10.9,2.2,4.83,-12.3,-33.4,-37.5,-0.05,-0.08,-1.85,0.4496
0.1,-0.1,-1.24,-9.35,-3.92,9.09,-13.48,-33.4,-38.09,-0.08,-0.08,-1.85,0.45
0.12,-0.11,-1.2,-6.49,-3.42,11.41,-13.77,-34.28,-38.38,-0.09,-0.1,-1.84,0.4504
0.09,-0.16,-1.29,10.35,0.22,-6.9,-13.48,-33.69,-38.67,-0.12,-0.07,-1.81,0.4508
0.12,-0.09,-1.19,16.96,1.79,-21.23,-12.6,-33.4,-36.91,-0.07,-0.1,-1.84,0.4512
0.07,-0.1,-1.27,-3.88,4.12,-8.55,-12.89,-33.98,-37.79,-0.08,-0.05,-1.85,0.4516
0.14,-0.06,-1.13,-2.98,-16.79,13.93,-12.89,-34.57,-38.09,-0.05,-0.12,-1.85,0.452
0.08,-0.14,-1.37,12.7,-19.03,-25.53,-13.18,-33.69,-38.38,-0.11,-0.06,-1.82,0.4524
0.16,-0.03,-1.24,-1.0,31.01,14.4,-12.3,-33.11,-36.91,-0.03,-0.13,-1.87,0.4528
0.12,-0.11,-1.2,2.65,7.92,22.7,-12.89,-33.98,-38.09,-0.09,-0.1,-1.82,0.4532
0.06,-0.13,-1.29,7.0,-16.43,-22.74,-11.72,-33.69,-38.38,-0.1,-0.05,-1.79,0.4536
0.15,-0.06,-1.18,2.92,11.54,8.89,-12.89,-34.28,-37.5,-0.05,-0.13,-1.85,0.454
0.07,-0.14,-1.33,16.29,0.42,-4.33,-13.18,-34.57,-38.09,-0.1,-0.05,-1.82,0.4544
0.14,-0.05,-1.15,-28.27,-17.1,-18.19,-12.89,-33.98,-38.09,-0.05,-0.12,-1.86,0.4548
0.17,-0.09,-1.18,26.0,-7.02,21.03,-12.89,-33.98,-37.79,-0.08,-0.14,-1.83,0.4552
0.06,-0.15,-1.36,-20.86,-2.91,-27.48,-13.18,-33.98,-37.5,-0.11,-0.04,-1.82,0.4556
0.07,-0.12,-1.27,12.01,20.8,11.04,-13.18,-34.57,-38.38,-0.1,-0.05,-1.83,0.456
0.15,-0.06,-1.04,-8.15,3.01,52.4,-14.06,-35.16,-38.09,-0.06,-0.15,-1.86,0.4564
0.55,-0.44,-2.0,-19.28,-24.03,111.85,-14.65,-34.86,-37.5,-0.21,-0.26,-1.77,0.4568
0.27,-0.12,-1.27,75.26,-36.02,107.38,-13.77,-34.28,-37.79,-0.09,-0.21,-1.83,0.4573
-0.01,-0.15,-1.29,97.39,-92.87,45.07,-11.72,-33.4,-38.09,-0.12,0.01,-1.78,0.4577
-0.09,-0.29,-1.11,83.72,-97.95,-10.75,-9.96,-31.64,-37.5,-0.26,0.08,-1.55,0.4581
0.01,-0.25,-0.97,80.57,-48.03,26.8,-9.38,-31.64,-37.21,-0.25,-0.01,-1.57,0.4585
-0.37,-0.4,-1.12,19.03,-96.02,-29.02,-8.2,-29.3,-36.04,-0.33,0.3,-1.23,0.4589
-0.34,-0.41,-1.07,-7.78,-90.17,83.35,-7.91,-28.12,-34.86,-0.35,0.29,-1.2,0.4593
-0.16,-0.49,-0.95,-0.98,0.02,62.55,-9.67,-27.83,-34.57,-0.47,0.15,-1.2,0.4597
-0.53,-0.31,-1.03,-13.76,-30.35,46.94,-10.55,-27.54,-34.57,-0.26,0.46,-1.45,0.4601
-0.55,-0.31,-1.01,-31.41,-48.9,40.99,-12.3,-27.25,-33.69,-0.26,0.48,-1.66,0.4605
-0.55,-0.17,-0.76,-29.15,-48.16,104.9,-13.18,-26.37,-33.69,-0.18,0.61,-2.75,0.4609
-0.58,-0.25,-0.98,-21.4,-61.81,149.48,-13.18,-25.78,-32.52,-0.21,0.52,-2.17,0.4613
-0.57,-0.16,-0.92,-20.26,-22.67,-4.55,-14.36,-25.49,-32.52,-0.15,0.55,-2.63,0.4618
-0.56,-0.2,-0.93,-15.19,-17.01,40.05,-14.36,-25.49,-32.23,-0.18,0.54,-2.46,0.4622
-0.55,-0.2,-0.98,10.09,-0.81,-12.73,-14.06,-25.78,-32.52,-0.18,0.51,-2.34,0.4626
-0.69,-0.07,-0.84,12.33,5.99,-31.97,-14.06,-25.78,-31.64,-0.06,0.69,3.13,0.463
-0.67,-0.05,-0.84,-12.94,9.18,6.56,-14.65,-25.78,-32.23,-0.05,0.68,3.13,0.4634
-0.71,-0.08,-0.88,-6.04,19.83,-30.13,-13.77,-25.78,-31.93,-0.07,0.68,-3.13,0.4638
-0.66,-0.15,-0.94,25.66,19.8,-98.88,-13.48,-25.78,-32.23,-0.13,0.6,-2.8,0.4642
-0.59,-0.17,-0.88,11.69,-0.22,-13.38,-13.77,-26.66,-32.81,-0.16,0.58,-2.6,0.4646
-0.59,-0.14,-0.85,-14.82,4.07,-19.74,-13.18,-26.37,-32.81,-0.13,0.6,-2.75,0.465
-0.57,-0.24,-0.96,-1.34,7.03,-23.95,-13.48,-26.66,-32.81,-0.21,0.52,-2.17,0.4655
-0.59,-0.19,-0.91,-4.69,3.6,-9.61,-12.6,-25.49,-32.52,-0.17,0.57,-2.52,0.4659
-0.58,-0.22,-0.87,-10.57,9.64,-7.05,-12.6,-26.07,-32.81,-0.21,0.57,-2.29,0.4663
-0.52,-0.26,-0.88,-23.48,13.05,-18.23,-13.18,-26.37,-32.81,-0.25,0.52,-1.92,0.4667
-0.62,-0.11,-1.05,-15.16,7.51,1.29,-13.18,-26.37,-33.11,-0.09,0.53,-2.58,0.4671
-0.47,-0.17,-0.96,1.29,-0.31,13.42,-13.18,-26.66,-33.11,-0.15,0.45,-2.17,0.4675
-0.48,-0.17,-0.96,3.04,-10.62,10.56,-13.48,-25.49,-32.52,-0.16,0.45,-2.25,0.4679
-0.57,-0.12,-0.93,-9.28,-10.41,11.24,-13.77,-26.07,-32.81,-0.11,0.55,-2.63,0.4683
-0.56,-0.12,-0.93,-10.5,6.18,1.79,-14.65,-26.07,-32.52,-0.11,0.54,-2.61,0.4688
-0.57,-0.14,-1.0,7.5,76.67,-0.37,-13.77,-26.07,-33.11,-0.12,0.51,-2.49,0.4692
-0.33,-0.18,-1.06,54.05,67.31,-84.38,-12.89,-25.78,-33.11,-0.16,0.3,-1.98,0.4696
-0.63,-0.43,-1.18,-71.65,-31.02,125.14,-13.77,-27.83,-34.86,-0.31,0.46,-1.53,0.47
-0.61,-0.14,-1.09,65.55,25.74,48.95,-13.48,-28.71,-36.33,-0.11,0.51,-2.41,0.4704
-0.45,-0.17,-1.11,207.95,9.37,29.23,-12.01,-28.71,-36.62,-0.14,0.38,-1.97,0.4708
-0.38,-0.44,-1.05,196.85,-26.63,-58.37,-8.5,-28.42,-34.86,-0.37,0.32,-1.14,0.4713
0.09,-0.81,-0.93,100.63,86.49,-198.22,-4.98,-30.47,-34.28,-0.72,-0.07,-1.08,0.4717
0.09,-2.0,0.23,113.86,6.14,-121.44,-2.64,-32.81,-33.98,-1.45,-0.05,-0.82,0.4721
-0.03,-0.79,-0.78,5.74,41.13,-14.99,-2.64,-33.98,-34.28,-0.79,0.03,-0.96,0.4725
0.04,-0.81,-0.74,175.54,62.16,63.28,-0.88,-34.57,-32.52,-0.83,-0.04,-1.01,0.4729
-0.09,-0.97,-0.49,109.09,-2.33,-26.72,0.0,-35.16,-31.05,-1.09,0.09,-0.82,0.4733
0.04,-0.96,-0.61,54.65,-24.67,9.54,1.17,-35.16,-30.47,-1.01,-0.04,-0.96,0.4737
0.04,-0.94,-0.37,35.18,33.13,154.31,0.59,-33.98,-30.47,-1.19,-0.04,-0.91,0.4741
-0.12,-0.95,-0.38,49.51,20.89,25.84,0.88,-33.11,-29.0,-1.17,0.12,-0.77,0.4745
-0.17,-0.96,-0.34,86.02,23.96,-55.2,1.17,-33.69,-28.42,-1.2,0.16,-0.74,0.4749
-0.15,-0.88,-0.23,50.19,-20.82,-41.69,2.64,-34.28,-26.66,-1.27,0.16,-0.76,0.4753
0.01,-0.84,-0.19,-27.06,-16.34,8.07,2.93,-34.28,-27.83,-1.35,-0.02,-0.9,0.4757
-0.07,-0.9,-0.17,-59.64,-57.31,-11.09,1.76,-33.98,-29.0,-1.37,0.08,-0.79,0.4761
0.01,-0.87,-0.3,-40.84,85.04,-25.05,1.76,-35.16,-30.18,-1.24,-0.01,-0.89,0.4765
-0.07,-0.98,-0.28,61.87,23.83,12.62,1.17,-35.16,-29.59,-1.28,0.07,-0.81,0.4769
-0.03,-0.92,-0.26,39.93,-33.97,27.94,1.46,-35.16,-28.71,-1.29,0.03,-0.87,0.4773
-0.04,-0.98,-0.22,19.29,3.79,-14.1,2.64,-33.98,-27.25,-1.35,0.04,-0.86,0.4777
-0.07,-0.94,-0.24,22.77,21.45,-4.83,2.93,-34.86,-27.25,-1.31,0.07,-0.84,0.4781
-0.07,-0.94,-0.23,74.1,-28.62,-50.5,3.22,-34.86,-26.95,-1.32,0.07,-0.85,0.4785
-0.17,-0.55,0.09,85.4,17.03,-137.45,2.34,-38.09,-26.37,-1.23,0.3,-0.68,0.4789
0.2,-0.77,-0.14,-33.92,-51.87,222.85,3.22,-38.96,-25.49,-1.26,-0.25,-1.24,0.4793
0.18,-0.82,0.07,-14.78,-2.25,48.08,3.52,-36.04,-25.49,-1.35,-0.21,-1.16,0.4797
0.03,-1.09,-0.29,4.97,-6.94,19.17,2.93,-35.74,-26.07,-1.31,-0.03,-0.97,0.4801
0.06,-0.93,-0.09,-3.53,-12.25,36.33,2.93,-36.04,-26.95,-1.46,-0.06,-0.99,0.4805
0.07,-1.02,-0.15,5.23,12.82,-9.99,2.34,-36.04,-26.37,-1.41,-0.07,-1.01,0.4809
0.04,-0.96,-0.17,19.85,4.13,3.44,2.93,-35.74,-25.78,-1.39,-0.04,-0.99,0.4813
-0.25,-1.12,-0.05,20.21,-44.01,54.89,2.64,-34.86,-24.9,-1.35,0.22,-0.74,0.4817
0.39,-0.88,0.13,-0.89,4.81,46.97,3.52,-33.98,-25.78,-1.14,-0.41,-1.32,0.4821
-0.16,-1.03,0.0,-16.02,53.05,118.8,1.17,-33.4,-26.07,-1.42,0.15,-0.76,0.4825
-0.28,-0.65,-0.08,-9.23,8.79,20.6,1.46,-32.52,-26.07,-1.15,0.4,-0.52,0.4829
-0.1,-0.73,0.09,-26.83,37.81,-42.52,1.46,-34.28,-27.25,-1.39,0.13,-0.77,0.4833
-0.15,-0.79,-0.38,-12.24,14.98,-22.17,1.76,-33.4,-26.66,-1.09,0.17,-0.77,0.4837
-0.08,-0.92,-0.45,10.73,-6.18,-19.96,2.05,-34.57,-27.25,-1.11,0.08,-0.86,0.4841
-0.03,-0.88,-0.22,9.68,-1.21,-39.01,2.64,-35.45,-26.66,-1.32,0.04,-0.89,0.4845
0.06,-0.98,-0.25,15.63,1.24,-36.16,2.64,-36.33,-26.37,-1.31,-0.06,-1.0,0.4849
-0.01,-0.9,-0.12,5.66,2.9,-27.63,3.22,-36.33,-26.37,-1.44,0.01,-0.93,0.4853
0.04,-1.03,-0.1,15.56,-19.48,24.57,2.93,-36.33,-26.37,-1.46,-0.04,-0.98,0.4857
-0.1,-0.95,-0.13,10.75,-30.23,27.08,1.76,-36.04,-26.07,-1.4,0.1,-0.84,0.4861
-0.02,-0.87,0.37,2.42,-10.8,54.45,2.05,-33.98,-24.61,-1.17,0.02,-0.95,0.4865
-0.14,-1.03,0.26,27.48,5.72,-21.66,2.05,-35.45,-24.9,-1.29,0.13,-0.84,0.4869
-0.1,-0.81,0.32,-0.52,15.91,-15.91,2.93,-36.33,-25.78,-1.19,0.11,-0.86,0.4873
-0.11,-0.65,0.31,-6.03,14.8,-11.99,2.64,-35.74,-24.61,-1.1,0.14,-0.86,0.4877
-0.08,-0.9,-0.04,-15.54,2.49,25.17,2.64,-34.28,-25.78,-1.47,0.09,-0.83,0.4881
-0.12,-1.1,-0.32,-12.66,-14.43,40.81,1.76,-33.69,-25.78,-1.27,0.1,-0.83,0.4886
-0.1,-0.85,-0.25,-22.51,-1.89,-5.9,2.64,-33.4,-26.95,-1.26,0.11,-0.79,0.489
-0.06,-1.01,-0.49,-12.94,9.64,-29.85,2.34,-33.98,-26.66,-1.12,0.06,-0.88,0.4894
-0.02,-1.08,-0.53,-1.37,-7.15,-18.78,2.93,-33.4,-27.25,-1.11,0.02,-0.9,0.4898
0.01,-0.96,-0.37,7.41,-4.3,-8.72,2.34,-34.57,-27.54,-1.2,-0.01,-0.92,0.4901
-0.05,-0.99,-0.38,21.76,-4.0,-29.67,3.22,-35.16,-27.54,-1.2,0.05,-0.87,0.4905
0.03,-0.96,-0.29,29.19,-7.32,-55.36,2.34,-36.62,-25.78,-1.28,-0.03,-1.0,0.4909
0.03,-0.97,-0.18,30.69,-18.22,-31.11,3.52,-37.79,-24.9,-1.39,-0.03,-1.01,0.4913
-0.07,-0.9,-0.11,32.45,-17.04,-37.9,3.22,-37.79,-24.02,-1.43,0.07,-0.93,0.4917
0.23,-0.86,0.04,8.81,-7.61,-24.93,3.22,-38.67,-23.44,-1.3,-0.26,-1.28,0.4921
0.19,-0.88,0.2,11.41,-6.72,-6.68,2.64,-39.55,-23.44,-1.27,-0.21,-1.24,0.4925
0.13,-0.83,0.24,0.13,-5.7,4.7,2.93,-40.14,-23.73,-1.25,-0.15,-1.18,0.4929
0.18,-0.89,0.15,6.41,4.26,-10.26,2.64,-39.84,-22.85,-1.31,-0.19,-1.24,0.4933
0.22,-0.89,0.13,0.4,5.21,8.26,2.64,-39.55,-23.14,-1.29,-0.24,-1.27,0.4937
0.2,-0.92,0.05,-0.72,5.3,11.3,2.05,-39.84,-22.85,-1.35,-0.21,-1.26,0.494
0.16,-0.96,0.01,4.75,0.78,4.3,2.64,-39.26,-22.85,-1.41,-0.16,-1.2,0.4944
0.13,-0.87,0.04,0.76,0.12,0.65,3.22,-38.96,-23.44,-1.42,-0.14,-1.17,0.4948
0.16,-0.88,0.03,-0.05,1.26,-0.62,2.64,-39.26,-23.44,-1.38,-0.18,-1.21,0.4952
0.14,-0.94,-0.04,0.63,-2.69,4.36,2.34,-38.38,-22.85,-1.41,-0.15,-1.18,0.4956
0.15,-0.94,-0.01,2.3,-1.33,-1.86,2.34,-39.26,-23.73,-1.41,-0.16,-1.19,0.4959
0.16,-0.93,0.01,0.61,-2.45,-2.17,2.05,-38.96,-23.14,-1.4,-0.17,-1.21,0.4964
0.16,-0.89,0.07,-5.2,3.52,-2.94,2.93,-38.96,-23.44,-1.38,-0.18,-1.2,0.4967
0.12,-0.94,0.01,-0.78,-0.85,-9.14,2.64,-39.26,-22.56,-1.45,-0.12,-1.17,0.4971
0.14,-0.93,0.14,6.9,5.16,-29.51,2.34,-39.55,-23.44,-1.36,-0.14,-1.18,0.4975
0.21,-0.85,0.27,-2.87,14.62,26.83,2.64,-38.38,-24.32,-1.19,-0.23,-1.23,0.4979
0.01,-0.7,0.32,-15.31,9.98,88.08,2.93,-36.62,-24.32,-1.15,-0.02,-1.02,0.4983
0.09,-0.79,-0.0,-32.42,21.27,39.2,3.52,-35.16,-25.78,-1.46,-0.11,-1.04,0.4987
0.04,-0.94,-0.39,-31.62,19.68,-5.06,2.93,-35.45,-26.95,-1.18,-0.04,-0.97,0.4991
0.01,-1.04,-0.43,-8.16,-0.35,-7.55,3.22,-35.16,-26.66,-1.18,-0.01,-0.94,0.4995
0.02,-1.07,-0.51,-0.72,-9.45,2.16,3.22,-35.16,-27.25,-1.13,-0.02,-0.95,0.4999
0.02,-1.07,-0.52,7.32,-11.01,-0.61,2.93,-34.57,-26.95,-1.12,-0.02,-0.96,0.5003
0.07,-1.03,-0.44,14.6,-14.85,3.74,2.34,-35.16,-26.95,-1.17,-0.06,-1.0,0.5007
-0.06,-0.93,-0.28,19.27,-15.61,-15.42,2.34,-35.74,-26.07,-1.27,0.06,-0.89,0.5011
-0.08,-0.96,-0.17,15.05,-24.38,1.74,3.22,-35.45,-25.49,-1.38,0.08,-0.87,0.5015
0.04,-0.78,0.28,5.71,-14.15,26.53,2.34,-36.04,-26.07,-1.22,-0.05,-1.01,0.5018
0.0,-0.94,0.1,3.49,0.18,35.58,2.05,-34.57,-25.49,-1.46,-0.0,-0.94,0.5022
-0.03,-0.84,0.05,8.03,2.79,63.47,2.05,-33.11,-24.9,-1.5,0.03,-0.89,0.5026
-0.12,-0.71,-0.01,34.26,-14.36,-27.02,2.34,-33.98,-24.9,-1.4,0.17,-0.77,0.503
-0.09,-0.86,0.02,-3.88,-4.43,11.86,2.34,-33.69,-24.61,-1.46,0.11,-0.83,0.5034
-0.16,-0.93,-0.06,-8.2,-8.43,-22.96,1.76,-33.98,-25.2,-1.39,0.17,-0.77,0.5037
-0.05,-0.9,-0.03,-21.97,0.83,-32.56,2.34,-34.57,-25.49,-1.51,0.05,-0.88,0.5042
-0.06,-0.94,-0.12,-2.85,5.07,-23.52,2.05,-35.16,-25.49,-1.43,0.07,-0.88,0.5046
-0.05,-0.9,-0.1,-14.59,8.43,-33.65,2.64,-35.74,-26.07,-1.45,0.06,-0.88,0.505
-0.03,-0.8,-0.08,-31.01,3.49,10.38,2.34,-35.16,-26.37,-1.46,0.03,-0.89,0.5053
0.03,-1.08,-0.26,8.51,1.47,-3.4,2.64,-35.45,-26.66,-1.34,-0.02,-0.95,0.5057
-0.0,-0.94,-0.15,-1.3,0.96,12.47,2.34,-34.57,-26.37,-1.42,0.0,-0.92,0.5061
-0.06,-0.93,-0.2,-2.04,-3.15,2.91,2.34,-34.28,-26.07,-1.35,0.07,-0.86,0.5065
-0.01,-0.94,-0.17,-1.21,1.11,7.98,2.05,-34.28,-26.95,-1.39,0.01,-0.9,0.5069
-0.06,-0.94,-0.16,0.69,1.52,10.62,2.05,-34.57,-27.25,-1.39,0.06,-0.84,0.5073
-0.07,-0.89,-0.11,10.61,-11.51,113.83,2.05,-33.11,-25.2,-1.42,0.08,-0.84,0.5077
-0.21,-0.85,-0.11,-3.66,-31.21,187.39,-0.29,-30.76,-26.07,-1.3,0.24,-0.65,0.5081
-0.45,-0.86,-0.32,-20.4,1.07,10.74,-0.29,-29.59,-26.66,-1.0,0.46,-0.45,0.5085
-0.31,-0.92,-0.2,-12.5,-44.24,98.2,-1.76,-28.12,-26.66,-1.19,0.32,-0.53,0.5089
-0.45,-0.86,-0.16,11.07,-31.48,52.41,-1.76,-28.12,-26.07,-1.07,0.47,-0.41,0.5093
-0.49,-0.74,-0.16,-5.83,-1.22,-13.89,-1.76,-28.42,-26.37,-0.96,0.58,-0.3,0.5097
-0.41,-0.78,-0.22,-17.01,-4.71,-71.08,-0.59,-29.0,-26.37,-1.03,0.47,-0.42,0.5101
-0.34,-0.89,-0.21,-15.98,1.66,-180.38,1.46,-31.93,-26.66,-1.15,0.35,-0.56,0.5105
-0.18,-0.79,-0.21,-55.17,36.42,-192.5,2.34,-34.28,-27.54,-1.24,0.22,-0.69,0.5109
-0.07,-1.01,-0.31,-6.2,-7.78,-2.98,1.46,-35.16,-29.0,-1.27,0.07,-0.83,0.5113
-0.3,-1.04,-0.42,18.2,-30.61,95.44,0.88,-32.52,-28.71,-1.11,0.26,-0.64,0.5117
-0.05,-0.71,-0.31,-0.69,-5.72,109.73,0.29,-32.23,-27.54,-1.15,0.07,-0.84,0.5121
-0.1,-0.68,-0.24,-26.54,11.37,-22.01,0.0,-32.23,-28.71,-1.2,0.14,-0.74,0.5125
-0.04,-0.79,-0.22,-63.37,70.79,119.68,-2.05,-30.47,-29.59,-1.3,0.05,-0.78,0.5129
-0.67,-0.66,-0.37,-10.3,3.93,51.54,-1.76,-31.05,-29.3,-0.71,0.73,-0.14,0.5133
-0.66,-0.8,-0.33,21.19,-136.94,21.93,-2.05,-29.88,-28.42,-0.83,0.65,-0.22,0.5137
-0.2,-0.8,-0.46,32.52,14.53,-148.25,0.0,-30.47,-26.37,-1.01,0.22,-0.72,0.5141
-0.37,-0.75,-0.15,33.63,-18.68,-214.87,1.76,-32.23,-26.37,-1.08,0.46,-0.47,0.5145
-0.14,-1.0,-0.47,-104.74,110.61,-148.99,2.05,-35.74,-27.25,-1.12,0.13,-0.83,0.515
0.05,-0.98,-0.37,6.33,9.26,-18.58,1.76,-36.04,-27.83,-1.21,-0.05,-0.98,0.5153
0.18,-0.93,-0.3,-8.73,25.96,-22.94,2.05,-36.33,-28.12,-1.21,-0.18,-1.1,0.5157
0.21,-0.92,-0.32,0.2,20.99,-17.88,2.34,-36.91,-29.0,-1.18,-0.21,-1.13,0.5161
0.26,-0.91,-0.3,10.08,7.29,-2.25,2.93,-37.21,-27.83,-1.16,-0.27,-1.2,0.5165
0.25,-0.94,-0.36,15.98,27.53,-13.71,2.34,-36.91,-27.54,-1.14,-0.24,-1.19,0.5169
0.18,-0.93,-0.24,18.95,40.25,-17.35,2.05,-38.38,-27.83,-1.26,-0.19,-1.14,0.5173
0.25,-0.93,-0.25,-0.81,26.66,-6.28,2.05,-38.67,-27.83,-1.21,-0.26,-1.21,0.5177
0.32,-0.95,-0.29,-1.79,28.29,0.8,2.05,-38.09,-27.83,-1.15,-0.31,-1.26,0.5181
0.23,-0.95,-0.2,-14.43,1.49,1.91,1.46,-38.67,-28.71,-1.26,-0.23,-1.17,0.5185
0.25,-0.93,-0.33,-1.44,-8.73,13.95,1.46,-38.38,-28.71,-1.15,-0.25,-1.2,0.5189
0.23,-0.99,-0.44,13.8,6.25,11.87,1.76,-37.5,-27.54,-1.11,-0.21,-1.17,0.5193
0.16,-0.98,-0.22,-0.6,-13.85,-2.1,2.05,-37.5,-27.83,-1.3,-0.15,-1.09,0.5197
0.26,-0.9,-0.26,-8.51,-37.67,36.08,1.76,-36.91,-28.42,-1.19,-0.27,-1.2,0.52
0.18,-0.96,-0.4,1.77,8.4,11.51,1.46,-36.91,-29.0,-1.15,-0.17,-1.1,0.5204
0.22,-0.94,-0.32,7.67,6.67,20.7,2.34,-37.21,-27.83,-1.18,-0.22,-1.16,0.5208
0.15,-0.96,-0.33,5.13,3.14,3.9,1.46,-36.62,-28.12,-1.21,-0.14,-1.08,0.5212
0.13,-0.96,-0.37,11.51,-3.89,-6.45,1.76,-36.91,-28.42,-1.18,-0.12,-1.06,0.5216
0.1,-0.96,-0.28,-0.62,-4.99,-10.54,1.76,-36.33,-28.42,-1.27,-0.1,-1.02,0.522
0.15,-0.95,-0.28,0.54,-0.51,1.15,0.88,-36.33,-27.83,-1.24,-0.15,-1.08,0.5224
0.16,-0.96,-0.33,9.23,21.22,-25.68,1.76,-36.62,-28.42,-1.21,-0.15,-1.08,0.5228
0.18,-0.93,-0.27,0.34,4.85,0.37,1.76,-37.5,-28.42,-1.23,-0.18,-1.11,0.5232
0.16,-0.95,-0.32,3.22,3.99,-1.19,0.88,-37.21,-28.42,-1.21,-0.16,-1.1,0.5236
0.17,-0.95,-0.29,2.04,-0.1,5.36,2.05,-37.5,-27.83,-1.23,-0.17,-1.11,0.5239
0.15,-0.95,-0.29,-0.95,1.73,1.84,1.46,-36.91,-28.12,-1.24,-0.15,-1.09,0.5243
0.17,-0.96,-0.31,-1.81,-3.97,6.73,1.46,-37.21,-29.3,-1.22,-0.17,-1.09,0.5247
0.16,-0.95,-0.32,2.14,1.88,0.62,2.05,-37.21,-28.42,-1.21,-0.16,-1.09,0.5251
0.12,-0.95,-0.27,4.05,-0.05,-2.54,1.76,-36.91,-28.42,-1.26,-0.13,-1.05,0.5255
0.17,-0.93,-0.29,0.24,-0.93,5.19,1.76,-36.62,-27.83,-1.22,-0.17,-1.11,0.5259
0.13,-0.95,-0.32,1.46,3.46,-1.57,1.46,-36.33,-28.42,-1.22,-0.13,-1.05,0.5263
0.1,-0.91,-0.27,-1.67,-3.29,-9.69,1.46,-36.91,-29.3,-1.26,-0.11,-1.02,0.5267
0.16,-0.92,-0.3,-4.95,-2.93,-0.37,1.46,-36.91,-28.12,-1.22,-0.16,-1.1,0.5271
0.16,-0.98,-0.32,-2.66,2.3,-4.83,1.76,-36.62,-28.71,-1.22,-0.16,-1.08,0.5275
0.17,-0.97,-0.32,3.5,3.74,-3.85,1.46,-37.21,-28.71,-1.22,-0.16,-1.09,0.5278
0.12,-0.96,-0.31,4.26,-4.26,-1.75,1.46,-36.62,-28.12,-1.24,-0.11,-1.05,0.5282
0.09,-0.95,-0.29,-0.56,-12.81,-0.13,1.46,-36.91,-29.59,-1.26,-0.09,-1.0,0.5286
0.1,-0.94,-0.3,0.69,-13.77,1.43,1.17,-37.21,-29.3,-1.25,-0.1,-1.02,0.529
0.09,-0.95,-0.35,4.35,-11.35,1.57,1.76,-37.21,-29.0,-1.21,-0.09,-1.02,0.5294
0.13,-0.96,-0.32,-5.47,-10.81,-9.98,1.17,-37.79,-29.59,-1.22,-0.13,-1.05,0.5298
0.19,-0.95,-0.48,4.07,-12.59,-12.02,1.76,-36.91,-28.71,-1.07,-0.18,-1.12,0.5302
0.21,-0.9,-0.28,-0.15,-8.29,-6.85,0.88,-37.79,-28.42,-1.21,-0.21,-1.16,0.5306
0.13,-0.92,-0.32,-6.2,-7.35,-13.35,1.46,-36.91,-29.0,-1.21,-0.14,-1.06,0.531
0.15,-0.95,-0.33,-13.08,-6.28,-15.04,1.46,-37.21,-29.59,-1.21,-0.14,-1.06,0.5314
0.22,-0.92,-0.38,-6.55,5.74,-20.83,0.88,-37.21,-29.88,-1.12,-0.22,-1.14,0.5318
0.3,-0.97,-0.41,19.0,10.3,1.67,1.17,-37.79,-29.88,-1.09,-0.28,-1.21,0.5322
0.19,-0.93,-0.4,-25.86,-130.47,-63.19,0.59,-36.62,-30.18,-1.12,-0.19,-1.11,0.5326
0.08,-0.89,-0.25,-9.94,-44.66,-26.81,0.88,-36.91,-29.88,-1.29,-0.08,-0.99,0.533
0.21,-0.91,-0.32,-15.98,-11.25,-10.18,1.46,-36.91,-30.18,-1.18,-0.21,-1.12,0.5334
0.21,-0.99,-0.49,6.32,1.66,-5.05,0.88,-36.91,-29.88,-1.08,-0.19,-1.12,0.5338
0.19,-0.95,-0.45,8.16,4.79,-5.84,1.46,-37.5,-29.59,-1.1,-0.18,-1.11,0.5342
0.23,-0.91,-0.44,9.53,-2.75,0.6,0.88,-37.5,-29.0,-1.07,-0.22,-1.18,0.5346
0.22,-0.92,-0.39,4.78,-0.72,2.52,1.76,-37.79,-30.18,-1.12,-0.21,-1.14,0.535
0.19,-0.95,-0.39,5.36,-1.31,-4.02,1.17,-37.5,-30.18,-1.15,-0.18,-1.1,0.5353
0.26,-0.92,-0.41,3.73,2.4,-3.08,1.17,-37.21,-29.3,-1.08,-0.26,-1.19,0.5357
0.21,-0.94,-0.42,4.97,4.6,-0.27,0.88,-37.79,-30.18,-1.11,-0.2,-1.14,0.5361
0.24,-0.94,-0.36,-0.7,-1.85,-0.63,1.17,-37.5,-29.88,-1.14,-0.23,-1.16,0.5365
0.25,-0.95,-0.43,8.06,1.72,0.21,1.17,-37.5,-29.88,-1.09,-0.23,-1.17,0.5369
0.21,-0.93,-0.37,3.72,-5.2,-3.73,1.17,-37.5,-30.18,-1.14,-0.21,-1.13,0.5373
0.26,-0.93,-0.39,14.13,-14.24,7.3,1.76,-37.79,-29.0,-1.1,-0.26,-1.2,0.5377
0.22,-0.96,-0.42,17.93,-1.68,0.2,1.46,-37.5,-29.0,-1.12,-0.2,-1.14,0.538
0.23,-0.93,-0.31,7.58,0.74,-1.73,1.17,-37.21,-29.3,-1.18,-0.23,-1.16,0.5384
0.24,-0.93,-0.29,4.31,1.98,3.52,1.76,-37.21,-28.42,-1.18,-0.25,-1.18,0.5388
0.2,-0.95,-0.36,4.6,3.96,0.22,0.88,-36.91,-29.0,-1.16,-0.2,-1.13,0.5392
0.23,-0.92,-0.31,-0.83,1.23,-1.89,1.46,-37.79,-29.3,-1.17,-0.23,-1.16,0.5396
0.24,-0.93,-0.34,-1.84,10.07,-3.62,0.88,-36.91,-29.3,-1.15,-0.24,-1.17,0.54
0.17,-0.95,-0.31,-2.76,8.18,-11.6,0.88,-38.09,-29.3,-1.21,-0.17,-1.1,0.5404
0.22,-0.95,-0.38,-1.67,-2.34,-7.67,1.76,-38.09,-28.71,-1.14,-0.22,-1.16,0.5407
0.24,-0.94,-0.33,1.82,-11.64,2.88,1.46,-37.21,-29.3,-1.16,-0.24,-1.16,0.5411
0.24,-0.95,-0.36,7.32,-8.13,-2.06,1.46,-38.09,-29.3,-1.14,-0.23,-1.17,0.5415
0.25,-0.94,-0.38,4.1,-4.23,-2.59,1.76,-37.79,-28.42,-1.13,-0.24,-1.18,0.5419
0.26,-0.92,-0.33,9.45,2.24,1.46,2.05,-37.21,-28.71,-1.14,-0.26,-1.19,0.5423
0.24,-0.93,-0.34,2.43,-2.52,-1.36,1.46,-36.91,-28.71,-1.15,-0.24,-1.17,0.5427
0.24,-0.94,-0.34,0.83,-2.38,-0.18,2.05,-38.38,-29.0,-1.16,-0.24,-1.18,0.5431
0.27,-0.94,-0.36,2.69,-0.05,1.01,1.17,-37.79,-29.0,-1.13,-0.26,-1.2,0.5434
0.24,-0.93,-0.33,2.19,0.09,4.65,1.46,-37.5,-28.71,-1.16,-0.24,-1.17,0.5438
0.22,-0.96,-0.38,1.55,-3.68,-5.42,0.88,-37.79,-29.59,-1.14,-0.21,-1.15,0.5442
0.28,-0.9,-0.32,3.52,-3.97,-1.11,1.17,-37.21,-29.3,-1.13,-0.29,-1.22,0.5446
0.25,-0.92,-0.33,3.6,-2.14,-4.41,1.46,-37.5,-29.3,-1.15,-0.25,-1.18,0.545
0.23,-0.96,-0.37,2.61,1.89,-2.07,1.46,-36.91,-28.42,-1.14,-0.22,-1.16,0.5454
0.28,-0.94,-0.38,4.99,2.45,3.78,1.46,-37.5,-29.0,-1.1,-0.27,-1.21,0.5457
0.24,-0.96,-0.39,5.17,-1.84,6.81,1.46,-37.79,-29.3,-1.12,-0.23,-1.17,0.5461
0.2,-0.94,-0.34,22.77,4.33,4.32,0.29,-37.5,-28.71,-1.18,-0.2,-1.14,0.5465
0.16,-0.98,-0.35,13.31,-2.71,-17.94,2.05,-37.5,-27.54,-1.19,-0.15,-1.1,0.5469
0.43,-0.85,-0.28,8.64,1.36,-2.84,2.05,-37.79,-27.83,-1.03,-0.44,-1.38,0.5473
0.38,-0.85,-0.29,-14.82,3.27,13.66,1.17,-37.5,-29.0,-1.06,-0.4,-1.33,0.5477
0.03,-1.01,-0.27,-5.1,-50.13,28.93,0.88,-36.91,-28.42,-1.3,-0.03,-0.96,0.5481
0.08,-0.92,-0.23,4.14,-8.09,-2.92,1.76,-37.21,-29.0,-1.31,-0.08,-1.0,0.5484
0.31,-0.88,-0.39,22.1,15.75,10.91,1.17,-36.62,-28.12,-1.06,-0.31,-1.26,0.5488
0.15,-0.97,-0.29,1.21,-12.05,8.19,2.05,-36.33,-27.54,-1.24,-0.15,-1.08,0.5492
-0.09,-0.99,-0.24,-104.55,44.16,85.37,1.46,-34.86,-29.88,-1.32,0.09,-0.78,0.5496
0.87,-0.82,-0.31,-29.72,39.13,38.86,0.29,-34.57,-31.05,-0.72,-0.78,-1.6,0.55
-0.02,-0.83,-0.51,19.23,14.69,58.47,0.59,-34.57,-30.47,-1.02,0.02,-0.91,0.5504
-0.21,-1.05,-0.71,-16.65,55.71,74.94,-0.88,-33.4,-30.76,-0.96,0.16,-0.77,0.5508
0.09,-0.27,-0.43,23.62,21.64,25.68,1.17,-35.45,-29.0,-0.55,-0.18,-1.27,0.5512
-0.1,-0.49,-0.27,85.98,-61.19,-250.0,2.34,-42.48,-27.25,-1.04,0.17,-0.88,0.5516
0.55,-0.69,-0.2,87.63,-1.11,-191.27,1.46,-46.58,-25.49,-0.87,-0.66,-1.67,0.552
0.57,-0.08,0.25,-58.2,7.74,96.14,0.88,-46.0,-25.49,-0.13,-1.13,-1.65,0.5524
0.65,-0.64,-0.08,-3.46,6.8,84.45,2.34,-43.36,-25.49,-0.77,-0.79,-1.72,0.5527
0.17,-0.54,0.09,-103.17,-58.4,118.52,2.64,-40.72,-26.95,-1.23,-0.31,-1.29,0.5531
0.01,-0.88,-0.44,-219.13,-87.89,-1.88,0.88,-39.26,-31.93,-1.1,-0.01,-0.95,0.5536
-0.1,-0.64,-0.99,-250.0,-216.55,-250.0,-2.93,-38.67,-35.45,-0.57,0.09,-1.09,0.554
0.49,-0.41,-0.95,-181.24,-151.26,-47.56,-5.27,-36.91,-37.21,-0.37,-0.45,-1.54,0.5544
0.76,-0.43,-1.26,-173.19,-85.96,56.4,-9.08,-33.98,-38.38,-0.28,-0.52,-1.66,0.5548
0.27,0.1,-0.99,-214.52,-104.33,111.45,-13.48,-31.64,-38.09,0.1,-0.27,-1.95,0.5552
0.33,0.24,-0.88,-221.47,-69.6,133.16,-18.16,-31.35,-35.45,0.25,-0.35,-2.08,0.5557
0.08,0.45,-1.38,-99.62,-40.62,168.25,-21.09,-31.05,-34.28,0.31,-0.06,-2.31,0.5561
-0.3,0.52,-1.2,-35.71,-44.36,-139.9,-21.68,-31.05,-33.69,0.4,0.23,-2.57,0.5565
-0.17,0.17,-1.52,249.99,87.77,2.72,-18.46,-31.64,-36.33,0.11,0.11,-2.26,0.5569
-0.09,0.12,-1.55,249.99,119.32,-74.77,-12.6,-32.23,-38.38,0.08,0.05,-2.05,0.5573
0.08,-0.67,-1.47,249.99,98.25,-250.0,-9.38,-34.86,-38.67,-0.42,-0.05,-1.39,0.5577
0.68,-0.76,-1.16,73.79,87.26,-26.21,-7.91,-33.69,-37.79,-0.52,-0.45,-1.52,0.5581
-0.45,-0.8,-1.21,249.99,-107.28,-185.77,-2.93,-33.69,-35.16,-0.56,0.3,-0.81,0.5585
-0.59,-0.86,-0.77,145.74,-73.17,23.93,-1.76,-32.52,-33.11,-0.73,0.47,-0.46,0.5589
0.54,-0.68,-1.17,183.98,91.82,159.83,-0.88,-32.23,-31.05,-0.49,-0.38,-1.4,0.5593
-0.1,-0.95,-0.47,66.09,16.59,6.06,-0.29,-31.35,-30.18,-1.11,0.09,-0.77,0.5597
-0.18,-1.06,-0.4,185.85,34.61,-16.19,1.76,-33.4,-28.42,-1.18,0.16,-0.74,0.5601
-0.03,-1.13,-0.67,249.99,55.08,-59.12,3.22,-34.57,-23.44,-1.03,0.02,-0.99,0.5605
-0.09,-0.55,0.09,249.99,39.57,-137.25,1.76,-37.79,-16.7,-1.34,0.17,-0.99,0.5609
-0.23,-0.1,0.48,196.79,15.92,-148.22,-0.59,-40.43,-13.48,-0.2,0.45,-1.4,0.5613
-0.17,0.08,0.66,133.64,-31.08,-194.78,-3.81,-42.19,-10.25,0.12,0.24,-1.73,0.5618
0.0,-0.6,0.6,133.04,84.38,-187.93,-5.57,-43.36,-9.67,-0.78,-0.0,-1.51,0.5622
-0.29,0.17,0.79,47.39,9.75,-17.58,-5.86,-42.48,-9.96,0.19,0.34,-1.84,0.5625
-0.19,0.66,0.9,-76.31,-136.37,165.04,-4.1,-44.24,-10.25,0.62,0.17,-1.89,0.563
0.15,0.1,0.65,-250.0,-187.51,169.38,0.29,-43.07,-13.18,0.15,-0.22,-1.58,0.5634
0.23,0.04,0.34,-250.0,-47.99,176.88,2.64,-40.43,-18.75,0.09,-0.6,-1.5,0.5638
-0.09,-0.7,0.01,-250.0,-111.48,88.48,2.93,-36.33,-24.9,-1.44,0.13,-0.83,0.5642
0.16,-0.51,-0.59,-250.0,-65.06,236.98,-0.59,-32.23,-30.47,-0.69,-0.2,-1.21,0.5646
0.12,-0.81,-0.67,-250.0,38.06,131.53,-4.1,-30.18,-33.98,-0.88,-0.11,-1.02,0.565
-0.64,-1.29,-1.26,-86.23,-190.26,-63.26,-6.45,-28.12,-33.98,-0.74,0.34,-0.58,0.5655
-0.84,-1.17,-0.78,-22.24,-89.98,-113.78,-7.03,-27.83,-33.69,-0.79,0.54,-0.25,0.5659
0.22,-0.61,-0.94,55.36,101.98,26.35,-6.15,-29.3,-34.28,-0.56,-0.19,-1.3,0.5663
-0.54,-0.55,-1.19,-72.14,-43.56,-77.47,-4.69,-29.3,-33.69,-0.4,0.39,-0.86,0.5667
0.47,-0.46,-0.83,39.18,162.56,234.43,-4.1,-29.59,-33.69,-0.45,-0.47,-1.49,0.5671
0.23,-0.4,-0.67,56.14,51.59,105.83,-3.22,-30.18,-33.4,-0.51,-0.29,-1.35,0.5675
-0.76,-1.0,-0.85,88.87,-44.51,-160.32,-3.52,-29.0,-33.11,-0.72,0.52,-0.32,0.5679
-0.56,-1.16,-0.66,52.61,-55.59,-128.87,-2.34,-31.05,-32.23,-0.93,0.4,-0.47,0.5683
-0.3,-0.48,-0.83,-19.48,30.72,226.78,-2.64,-32.23,-32.52,-0.49,0.3,-0.89,0.5687
0.22,-0.27,-0.64,-0.29,19.65,121.52,-1.17,-32.23,-31.93,-0.38,-0.3,-1.41,0.5691
0.17,-0.73,-0.61,0.09,-39.24,-27.01,-0.59,-32.52,-31.05,-0.85,-0.17,-1.11,0.5695
-0.63,-0.69,-0.76,249.99,145.16,249.99,0.59,-29.88,-28.42,-0.61,0.55,-0.43,0.5699
-0.66,-1.23,-0.36,249.99,-65.64,161.21,-0.29,-29.59,-23.73,-1.02,0.48,-0.48,0.5703
0.02,0.77,0.39,-45.37,30.34,46.29,-1.17,-31.05,-22.27,1.1,-0.02,-2.13,0.5707
-0.31,-0.77,0.19,186.54,-9.56,-44.24,0.29,-32.23,-18.16,-1.13,0.37,-0.73,0.5711
-0.07,-0.59,0.37,109.85,52.44,26.66,0.0,-33.11,-16.99,-1.0,0.1,-1.07,0.5715
-0.42,-0.05,0.34,123.89,-39.35,-24.96,-1.17,-33.98,-14.06,-0.1,0.89,-1.36,0.5719
-0.33,-0.52,0.4,204.55,-48.4,-26.62,-3.81,-34.28,-11.72,-0.79,0.46,-1.02,0.5724
-0.43,-0.21,0.42,249.99,-103.93,54.28,-7.91,-35.74,-9.96,-0.34,0.74,-1.42,0.5728
-0.01,0.38,0.75,249.99,-74.33,82.0,-12.89,-37.5,-9.67,0.47,0.01,-1.97,0.5732
0.39,0.79,0.67,249.99,-76.9,117.55,-18.46,-39.26,-10.25,0.79,-0.36,-1.81,0.5736
0.44,0.96,0.46,227.46,-70.31,-14.46,-21.68,-41.02,-13.48,0.98,-0.39,-1.78,0.574
0.34,1.22,0.04,122.67,-50.09,-18.91,-23.44,-40.14,-15.82,1.3,-0.27,-1.81,0.5744
0.18,1.5,0.02,-87.94,37.09,-91.35,-22.56,-39.26,-14.36,1.45,-0.12,-1.86,0.5748
0.07,1.47,-0.11,-250.0,-29.62,-238.25,-17.58,-38.67,-10.25,1.48,-0.04,-1.82,0.5752
-0.32,0.76,0.22,-250.0,-106.22,-107.15,-8.2,-38.96,-9.08,1.1,0.38,-2.21,0.5756
-0.37,-0.41,0.69,-250.0,-91.24,-88.22,-3.22,-40.14,-10.55,-0.48,0.43,-1.29,0.576
-0.01,-0.12,0.57,-250.0,-45.67,40.27,1.46,-39.55,-14.94,-0.21,0.01,-1.45,0.5764
0.16,-0.88,0.28,-232.79,-31.61,22.94,2.64,-38.38,-18.46,-1.22,-0.17,-1.29,0.5769
0.11,-0.8,0.09,-173.77,-51.8,-28.95,4.1,-38.67,-21.97,-1.39,-0.14,-1.18,0.5773
0.34,-1.13,-0.21,-129.43,-73.75,32.95,4.39,-37.21,-25.78,-1.23,-0.29,-1.24,0.5777
0.19,-1.73,1.24,-117.31,-53.2,121.84,2.05,-36.04,-29.0,-0.95,-0.09,-1.05,0.5781
0.13,-0.93,-0.35,-82.44,-28.51,100.73,1.76,-34.86,-30.47,-1.19,-0.13,-1.01,0.5785
-0.1,-1.2,-0.64,-45.58,-44.45,16.78,0.29,-33.11,-30.18,-1.07,0.07,-0.82,0.5789
0.34,-0.89,-0.47,-9.67,63.25,116.74,0.59,-33.4,-31.64,-1.0,-0.33,-1.19,0.5793
0.02,-0.92,-0.56,-18.55,29.34,54.68,-0.59,-33.4,-31.93,-1.02,-0.02,-0.91,0.5797
-0.21,-0.87,-0.58,-0.21,-28.88,-29.14,-0.29,-33.11,-32.52,-0.96,0.2,-0.69,0.5802
-0.04,-0.93,-0.5,6.87,-32.62,1.99,0.29,-33.69,-31.64,-1.08,0.04,-0.84,0.5806
0.04,-0.9,-0.55,-8.91,14.49,-77.67,0.88,-33.98,-31.64,-1.02,-0.03,-0.92,0.581
-0.08,-0.92,-0.54,-4.3,-39.28,-73.01,0.29,-34.86,-31.93,-1.03,0.08,-0.82,0.5814
0.2,-0.99,-0.57,22.16,-21.96,-64.03,0.0,-36.33,-31.93,-1.02,-0.17,-1.09,0.5818
0.32,-0.94,-0.55,8.46,-4.06,-2.49,1.76,-36.91,-31.35,-0.97,-0.29,-1.2,0.5821
0.26,-0.89,-0.48,12.86,-2.27,-38.48,1.76,-37.79,-31.05,-1.01,-0.26,-1.18,0.5825
0.12,-1.0,-0.47,12.06,-8.77,-45.03,1.46,-37.5,-31.35,-1.12,-0.11,-1.02,0.583
0.4,-0.89,-0.45,23.79,26.76,-11.66,1.46,-38.38,-30.76,-0.98,-0.38,-1.31,0.5833
0.26,-0.9,-0.43,10.92,6.04,-5.65,1.76,-37.79,-30.76,-1.06,-0.25,-1.17,0.5837
0.23,-0.94,-0.47,2.21,5.55,-41.16,2.64,-38.96,-30.76,-1.06,-0.22,-1.15,0.5841
0.27,-0.78,-0.59,-5.74,-14.52,18.75,2.05,-37.79,-30.18,-0.88,-0.27,-1.23,0.5845
0.29,-0.95,-0.45,10.57,-11.23,22.89,1.76,-36.91,-30.47,-1.06,-0.27,-1.18,0.5849
0.35,-0.87,-0.47,4.22,6.01,40.86,2.05,-38.09,-30.47,-0.98,-0.34,-1.27,0.5853
0.36,-0.91,-0.41,23.17,16.37,-13.37,2.05,-36.62,-29.3,-1.03,-0.34,-1.26,0.5857
0.22,-0.95,-0.42,10.56,13.47,-47.74,2.34,-38.96,-30.76,-1.11,-0.21,-1.13,0.5861
0.14,-0.89,-0.33,-3.75,-16.12,-65.81,1.76,-38.67,-29.88,-1.19,-0.14,-1.07,0.5865
0.22,-0.86,-0.39,-57.88,-56.52,-160.84,1.46,-40.72,-31.64,-1.09,-0.23,-1.17,0.5869
0.7,-1.17,-0.75,27.9,15.8,39.31,0.88,-40.14,-31.93,-0.85,-0.47,-1.4,0.5873
0.71,-0.92,-0.68,-61.61,146.35,-250.0,0.29,-41.89,-31.64,-0.75,-0.56,-1.5,0.5878
0.16,-0.75,-0.45,23.59,93.94,-79.85,0.29,-43.65,-31.05,-1.0,-0.18,-1.19,0.5882
0.5,-0.65,-0.5,-50.56,91.89,-227.32,0.59,-44.82,-30.18,-0.74,-0.55,-1.54,0.5886
0.61,-1.39,-0.49,-11.39,66.0,-2.19,-0.29,-45.7,-30.47,-1.06,-0.39,-1.4,0.589
0.86,-0.61,-0.23,-49.7,104.2,76.81,-1.17,-45.12,-30.76,-0.6,-0.92,-1.78,0.5894
0.43,-0.5,-0.33,-60.08,-109.91,-80.23,-2.93,-46.29,-33.4,-0.75,-0.62,-1.61,0.5898
0.47,0.04,-0.5,-173.6,-179.53,134.18,-4.39,-42.48,-37.21,0.06,-0.75,-1.65,0.5902
-0.27,-0.63,-1.38,-163.47,-250.0,157.64,-5.57,-35.45,-37.79,-0.42,0.17,-1.15,0.5907
0.37,-0.86,-1.58,-70.92,-207.28,199.14,-8.5,-30.47,-36.04,-0.49,-0.2,-1.41,0.5911
0.57,-0.99,-1.59,37.71,249.99,57.5,-10.25,-34.28,-38.67,-0.53,-0.29,-1.46,0.5915
-0.01,-0.79,-1.09,66.19,191.49,-105.63,-7.91,-38.09,-38.09,-0.63,0.0,-1.17,0.5919
-0.49,-0.59,-1.17,187.32,-86.09,-117.05,-5.57,-38.38,-36.91,-0.44,0.36,-0.99,0.5923
-0.16,-0.2,-0.98,55.82,-250.0,-91.2,-3.81,-35.16,-35.74,-0.2,0.16,-1.42,0.5927
0.08,-0.34,-1.27,-79.54,-134.61,35.77,-5.86,-33.11,-36.33,-0.26,-0.06,-1.48,0.5931
0.13,-0.67,-1.37,-36.91,68.9,80.66,-5.86,-33.11,-36.04,-0.45,-0.09,-1.32,0.5935
0.07,-0.6,-0.96,-38.73,192.43,49.45,-7.62,-35.74,-37.5,-0.56,-0.06,-1.26,0.594
-0.21,-0.69,-0.85,46.24,24.13,25.41,-6.15,-35.74,-36.33,-0.67,0.19,-0.92,0.5944
-0.14,-0.6,-0.83,-0.27,-164.43,-97.05,-6.45,-33.98,-36.04,-0.62,0.14,-1.01,0.5948
0.19,-0.61,-1.08,7.61,-87.34,-70.46,-5.57,-33.4,-35.45,-0.51,-0.15,-1.32,0.5952
0.3,-0.6,-1.17,18.39,117.58,-12.67,-4.98,-34.57,-35.45,-0.46,-0.22,-1.39,0.5956
-0.02,-0.58,-1.02,-81.42,56.84,-79.07,-6.15,-36.62,-36.62,-0.51,0.02,-1.23,0.596
0.03,-0.55,-0.89,32.23,-109.15,-70.92,-5.27,-35.45,-35.74,-0.56,-0.03,-1.21,0.5964
0.3,-0.49,-1.23,85.01,-88.03,-59.64,-4.1,-35.45,-34.86,-0.37,-0.22,-1.44,0.5968
0.54,-0.26,-1.16,23.34,124.4,19.1,-4.39,-35.74,-34.28,-0.2,-0.43,-1.59,0.5975
0.17,-0.41,-0.86,-126.24,68.97,63.03,-5.86,-36.91,-36.04,-0.44,-0.18,-1.41,0.5979
0.04,-0.69,-1.02,40.31,-55.81,58.39,-5.27,-35.74,-35.74,-0.59,-0.04,-1.19,0.5983
0.36,-0.52,-1.04,49.09,-55.56,9.68,-5.57,-35.16,-35.74,-0.44,-0.3,-1.45,0.5987
0.3,-0.52,-1.3,-25.25,83.63,-54.54,-4.69,-36.33,-35.45,-0.37,-0.21,-1.44,0.5991
-0.15,-0.72,-1.38,70.5,61.38,-107.57,-3.52,-38.67,-34.86,-0.48,0.1,-1.17,0.5995
-0.13,-0.38,-0.95,92.19,-111.07,-79.4,-2.34,-38.96,-33.98,-0.37,0.13,-1.23,0.5999
0.37,-0.12,-0.6,-132.59,-83.18,89.85,-2.93,-36.04,-33.69,-0.17,-0.55,-1.6,0.6003
0.78,-1.46,-0.8,28.4,75.67,-27.21,-2.93,-36.62,-33.98,-0.92,-0.44,-1.36,0.6007
0.19,-0.39,-0.88,-37.29,54.27,-38.92,-2.64,-38.09,-33.11,-0.41,-0.2,-1.4,0.6011
0.19,-0.59,-1.06,-63.76,-55.98,-126.03,-3.22,-37.5,-33.98,-0.5,-0.16,-1.33,0.6015
0.38,-0.83,-1.15,51.32,47.47,-8.03,-3.22,-37.5,-34.28,-0.6,-0.26,-1.34,0.6019
0.29,-0.49,-0.97,11.71,-35.33,-19.96,-3.22,-38.09,-34.28,-0.45,-0.26,-1.41,0.6023
0.11,-0.58,-1.09,-61.11,-11.69,-88.75,-3.81,-38.67,-33.4,-0.49,-0.09,-1.32,0.6027
0.62,-0.45,-0.93,10.51,53.25,59.4,-4.1,-39.55,-34.28,-0.38,-0.54,-1.58,0.6031
0.26,-0.57,-1.09,-25.41,-26.6,-54.89,-4.69,-38.96,-34.28,-0.47,-0.2,-1.41,0.6035
0.44,-0.58,-1.01,5.51,45.97,21.74,-3.81,-40.43,-33.98,-0.49,-0.36,-1.47,0.6039
0.39,-0.47,-0.99,-17.4,-20.02,-22.88,-4.69,-39.26,-33.98,-0.42,-0.34,-1.5,0.6043
0.43,-0.55,-1.09,10.7,18.26,18.31,-3.52,-39.55,-34.28,-0.44,-0.34,-1.47,0.6047
0.37,-0.47,-1.02,-3.59,-29.91,-21.13,-4.1,-39.55,-33.69,-0.41,-0.32,-1.49,0.6051
0.52,-0.54,-1.0,2.02,14.11,14.63,-4.1,-39.84,-34.28,-0.45,-0.43,-1.52,0.6055
0.29,-0.49,-1.06,-9.99,24.28,-4.88,-4.1,-39.84,-34.57,-0.42,-0.24,-1.44,0.6059
0.45,-0.47,-1.06,14.61,1.45,-59.15,-4.39,-40.14,-34.28,-0.39,-0.37,-1.52,0.6063
0.51,-0.55,-0.95,-13.91,18.12,44.54,-4.39,-40.14,-34.28,-0.48,-0.44,-1.52,0.6067
0.41,-0.58,-0.92,-31.41,-33.06,4.96,-4.39,-39.26,-34.28,-0.52,-0.36,-1.46,0.6082
0.44,-0.55,-1.13,-28.25,-43.91,24.39,-4.98,-37.5,-34.86,-0.43,-0.34,-1.49,0.6088
0.48,-0.43,-1.06,-46.96,-32.4,60.13,-5.27,-37.79,-35.16,-0.36,-0.4,-1.55,0.6092
0.43,-0.36,-1.09,3.88,-49.93,42.27,-5.86,-37.21,-35.16,-0.29,-0.36,-1.57,0.6096
0.24,-0.39,-1.12,-23.57,-52.56,35.48,-5.86,-35.16,-35.45,-0.33,-0.2,-1.49,0.6101
0.24,-0.38,-1.24,7.35,-118.51,-35.74,-5.86,-33.69,-33.98,-0.29,-0.19,-1.52,0.6105
0.19,-0.33,-1.2,-49.1,-55.38,-8.95,-6.45,-31.93,-34.57,-0.27,-0.15,-1.53,0.6109
0.04,-0.38,-1.07,36.87,-31.68,-11.07,-6.45,-31.35,-34.57,-0.34,-0.04,-1.42,0.6113
-0.15,-0.37,-1.08,65.73,-43.01,-22.32,-6.15,-30.47,-33.98,-0.32,0.13,-1.33,0.6117
-0.35,-0.11,-1.11,-55.81,-58.97,26.4,-7.03,-29.59,-34.57,-0.1,0.3,-1.73,0.6121
-0.21,-0.57,-1.23,11.95,30.85,59.27,-7.32,-29.3,-34.86,-0.43,0.15,-1.19,0.6125
0.19,-0.56,-1.15,70.37,125.94,38.38,-7.32,-30.76,-35.16,-0.45,-0.15,-1.39,0.6129
-0.41,-0.48,-1.03,141.67,62.86,69.3,-6.15,-30.76,-35.45,-0.41,0.35,-0.96,0.6133
-0.4,-0.23,-1.01,-20.46,-76.82,32.07,-6.15,-30.18,-35.45,-0.21,0.37,-1.36,0.6137
-0.22,-0.37,-1.16,-77.02,-14.15,155.98,-8.79,-29.0,-34.86,-0.3,0.18,-1.42,0.6141
-0.29,-0.71,-1.13,110.0,-47.74,-11.16,-7.32,-28.71,-34.28,-0.55,0.21,-0.97,0.6145
0.05,-0.25,-0.89,-91.67,115.73,17.66,-9.38,-30.18,-36.62,-0.27,-0.05,-1.56,0.6149
-0.69,-0.68,-1.01,86.43,-92.83,-190.12,-8.5,-30.18,-36.04,-0.51,0.52,-0.51,0.6153
-0.23,-0.43,-1.22,64.22,-18.29,-8.09,-6.74,-29.59,-34.57,-0.33,0.17,-1.3,0.6158
-0.06,-0.28,-1.12,-37.06,-36.92,-56.8,-5.86,-29.59,-35.16,-0.24,0.05,-1.46,0.6162
-0.17,-0.64,-1.09,-4.79,-37.73,-150.6,-6.45,-30.76,-34.86,-0.52,0.13,-1.08,0.6166
0.2,-0.5,-1.13,34.13,160.87,28.35,-4.39,-31.93,-35.74,-0.41,-0.16,-1.36,0.617
-0.36,-0.6,-0.89,84.65,-16.15,-42.42,-3.22,-32.81,-35.45,-0.56,0.33,-0.76,0.6174
0.24,-0.59,-0.95,169.52,102.8,75.24,-2.05,-33.98,-34.28,-0.54,-0.21,-1.28,0.6178
-0.19,-0.58,-0.84,-26.01,-85.27,-95.56,-1.46,-32.81,-33.4,-0.59,0.18,-0.91,0.6182
0.35,-0.83,-0.9,43.62,66.81,14.32,-1.17,-33.98,-33.11,-0.71,-0.28,-1.25,0.6186
0.11,-0.8,-0.76,46.85,53.48,-2.22,0.0,-34.57,-33.4,-0.8,-0.1,-1.05,0.619
0.2,-0.81,-0.74,23.02,4.86,-53.73,0.0,-35.45,-32.23,-0.81,-0.18,-1.15,0.6194
0.19,-0.8,-0.66,46.75,25.74,5.01,0.59,-36.04,-31.64,-0.86,-0.18,-1.13,0.6198
0.23,-0.73,-0.67,-27.05,-34.93,-38.61,0.0,-35.74,-32.81,-0.8,-0.23,-1.18,0.6202
0.31,-0.88,-0.69,-1.98,3.63,-2.1,0.29,-36.04,-32.81,-0.86,-0.27,-1.2,0.6206
0.33,-0.68,-0.7,-42.64,6.86,11.19,-0.29,-36.04,-32.23,-0.72,-0.32,-1.3,0.621
0.28,-0.85,-0.71,-2.98,1.91,-28.24,0.0,-37.5,-33.4,-0.84,-0.24,-1.2,0.6214
0.22,-0.78,-0.72,-2.69,-6.45,-21.44,0.0,-36.91,-32.81,-0.8,-0.21,-1.18,0.6218
0.36,-0.81,-0.8,-3.04,9.48,-15.98,0.29,-36.04,-32.81,-0.74,-0.31,-1.27,0.6222
0.32,-0.78,-0.67,5.31,-5.33,1.66,0.0,-36.62,-33.69,-0.81,-0.3,-1.24,0.6226
0.4,-0.83,-0.78,4.73,8.04,1.89,-0.29,-37.21,-33.4,-0.76,-0.34,-1.3,0.6229
0.35,-0.89,-0.76,33.27,18.35,7.28,0.0,-36.91,-33.11,-0.82,-0.29,-1.24,0.6233
0.29,-0.87,-0.71,30.85,-18.09,-18.93,0.88,-37.5,-31.93,-0.85,-0.26,-1.21,0.6237
0.4,-0.81,-0.65,12.68,-10.59,-8.54,1.46,-37.21,-32.52,-0.82,-0.36,-1.29,0.6241
0.36,-0.8,-0.66,4.49,-1.64,-5.49,1.17,-36.91,-31.93,-0.82,-0.33,-1.27,0.6245
0.46,-0.66,-0.56,-25.25,51.77,-43.71,0.0,-38.38,-33.11,-0.74,-0.49,-1.42,0.6249
0.35,-0.84,-0.7,-20.44,35.2,-5.41,0.88,-38.09,-33.4,-0.82,-0.31,-1.25,0.6253
0.41,-0.85,-0.71,-3.04,27.38,-4.87,1.17,-38.38,-33.11,-0.81,-0.36,-1.29,0.6257
0.36,-0.83,-0.68,15.22,2.98,0.14,0.88,-38.38,-32.52,-0.83,-0.32,-1.27,0.6261
0.47,-0.74,-0.63,6.61,-10.72,13.4,1.17,-38.38,-31.93,-0.76,-0.45,-1.39,0.6265
0.43,-0.8,-0.62,6.48,-9.04,-2.07,0.88,-38.67,-31.35,-0.82,-0.4,-1.35,0.6269
0.6,-0.95,-0.69,-6.55,61.87,35.04,0.88,-38.67,-31.64,-0.81,-0.47,-1.4,0.6273
0.05,-1.09,-0.62,58.0,-132.57,-63.45,0.88,-37.21,-31.93,-1.05,-0.04,-0.96,0.6277
0.46,-0.68,-0.61,12.47,-21.48,40.79,1.17,-37.5,-31.64,-0.73,-0.46,-1.39,0.6281
0.68,-0.72,-0.46,47.39,69.23,41.26,1.76,-37.21,-29.88,-0.72,-0.67,-1.54,0.6285
0.07,-1.01,-0.6,136.98,80.87,-26.42,2.64,-36.33,-28.71,-1.03,-0.06,-1.01,0.6289
0.51,-1.1,-0.46,26.47,145.89,43.76,2.93,-36.91,-29.59,-1.01,-0.4,-1.31,0.6293
-0.04,-1.12,-0.46,-46.8,-98.72,-217.63,2.34,-37.5,-29.59,-1.18,0.03,-0.89,0.6297
0.53,-1.04,-0.49,9.8,6.59,-61.51,2.05,-39.55,-29.59,-0.96,-0.43,-1.37,0.6301
0.06,-0.85,-0.48,39.99,3.27,-23.19,2.34,-39.84,-30.47,-1.05,-0.07,-1.03,0.6305
0.24,-0.75,-0.33,62.1,-26.83,148.3,2.93,-37.21,-27.83,-1.08,-0.28,-1.22,0.6309
0.31,-0.74,-0.39,-9.6,-44.75,211.89,1.76,-34.57,-28.71,-0.98,-0.36,-1.27,0.6313
0.3,-0.64,-0.28,-32.83,25.22,136.73,0.88,-32.81,-29.0,-1.0,-0.4,-1.28,0.6317
-0.38,-0.67,-0.32,-60.58,-10.81,35.79,0.29,-31.05,-28.71,-0.94,0.47,-0.43,0.6321
-0.17,-0.88,-0.4,-47.65,11.49,43.37,-0.59,-30.76,-30.76,-1.11,0.17,-0.67,0.6325
-0.15,-1.02,-0.49,1.53,19.24,-6.45,-1.17,-31.05,-30.76,-1.11,0.13,-0.72,0.6329
-0.22,-0.96,-0.52,11.23,5.11,-20.61,-0.88,-31.64,-30.76,-1.04,0.2,-0.68,0.6333
-0.1,-0.93,-0.55,34.94,28.82,5.25,-0.88,-31.05,-29.59,-1.03,0.09,-0.8,0.6337
-0.08,-0.91,-0.48,22.72,0.39,-18.93,0.59,-31.93,-30.47,-1.08,0.08,-0.79,0.6341
-0.09,-0.97,-0.48,20.85,-1.57,-7.23,0.59,-32.23,-30.47,-1.1,0.09,-0.78,0.6345
-0.08,-0.88,-0.43,9.03,-12.98,5.91,1.17,-31.93,-30.18,-1.11,0.08,-0.78,0.6349
-0.06,-0.96,-0.44,14.72,-1.59,4.48,0.29,-32.52,-29.59,-1.14,0.06,-0.82,0.6353
-0.09,-0.92,-0.43,14.34,-5.71,2.17,0.0,-32.23,-29.59,-1.13,0.09,-0.79,0.6356
-0.12,-0.88,-0.4,5.39,-0.5,5.71,0.29,-31.64,-28.71,-1.12,0.12,-0.76,0.636
-0.18,-0.89,-0.42,5.18,-6.39,-5.13,0.0,-31.35,-29.0,-1.1,0.18,-0.7,0.6364
-0.06,-0.91,-0.37,6.04,12.28,7.1,0.0,-31.93,-29.3,-1.18,0.06,-0.8,0.6368
-0.11,-0.92,-0.39,6.87,4.7,-8.12,0.29,-31.64,-29.3,-1.16,0.11,-0.76,0.6372
-0.11,-0.92,-0.4,8.18,8.06,-5.44,0.88,-31.93,-29.0,-1.15,0.11,-0.76,0.6375
-0.04,-0.94,-0.38,7.82,24.99,10.4,0.29,-32.52,-29.3,-1.19,0.04,-0.84,0.6379
-0.08,-0.96,-0.41,8.11,5.83,-12.78,1.46,-31.64,-29.59,-1.17,0.08,-0.78,0.6383
-0.11,-0.93,-0.4,4.75,-0.43,-13.08,1.17,-32.23,-29.0,-1.15,0.11,-0.76,0.6387
-0.08,-0.87,-0.38,1.17,-0.74,0.23,0.29,-32.23,-29.3,-1.16,0.08,-0.8,0.6391
-0.1,-0.94,-0.42,2.41,0.23,3.73,0.59,-31.93,-29.3,-1.14,0.09,-0.78,0.6394
-0.1,-0.95,-0.39,-6.64,7.1,19.06,0.88,-31.93,-29.88,-1.16,0.1,-0.75,0.6398
-0.05,-0.92,-0.39,-0.44,-0.37,19.16,0.29,-31.93,-29.0,-1.16,0.05,-0.83,0.6402
-0.05,-1.04,-0.39,41.05,10.6,14.75,0.88,-31.64,-29.59,-1.21,0.04,-0.8,0.6406
-0.13,-1.14,-0.39,111.19,15.75,37.6,1.17,-31.93,-27.83,-1.23,0.11,-0.77,0.641
-0.25,-1.05,-0.3,131.77,-23.92,36.57,0.59,-31.35,-25.49,-1.22,0.23,-0.69,0.6561
-0.26,-1.01,-0.08,169.21,-36.56,28.5,0.29,-31.64,-21.68,-1.31,0.25,-0.74,0.7298
-0.16,-0.83,0.12,197.45,-34.16,4.95,0.29,-32.23,-18.46,-1.34,0.19,-0.88,0.8036
-0.23,-0.8,0.25,216.55,-61.45,-25.76,-1.17,-34.57,-14.36,-1.17,0.27,-0.96,0.8773
-0.06,-0.78,0.49,243.29,-48.03,-20.88,-4.1,-35.45,-11.43,-1.0,0.07,-1.31,0.9511
-0.0,-0.21,0.61,186.97,-53.12,-29.37,-6.74,-36.91,-10.25,-0.33,0.0,-1.65,1.0248
-0.15,0.16,0.61,152.28,-50.45,-29.64,-9.96,-37.5,-8.79,0.24,0.23,-1.95,1.0984
0.1,0.1,0.67,160.06,-29.68,-7.89,-13.18,-38.09,-9.38,0.15,-0.15,-1.9,1.1723
0.21,0.39,0.73,143.52,-16.79,-14.65,-14.36,-38.67,-9.67,0.47,-0.24,-1.88,1.246
0.18,0.59,0.61,157.8,-16.33,-7.24,-17.87,-38.38,-10.25,0.74,-0.21,-1.92,1.3197
0.07,0.58,0.43,165.61,-46.1,-8.68,-20.21,-39.26,-11.72,0.93,-0.09,-2.0,1.3934
-0.09,0.83,0.2,163.67,-64.98,6.08,-22.56,-40.43,-14.06,1.32,0.1,-2.11,1.4672
0.18,0.93,0.11,159.61,-33.42,31.36,-24.61,-40.43,-15.82,1.35,-0.19,-1.87,1.5409
0.31,0.91,-0.06,182.63,-13.51,47.2,-24.32,-41.31,-19.34,1.24,-0.33,-1.85,1.6146
0.29,0.98,-0.26,158.11,-19.26,41.27,-25.2,-41.31,-22.85,1.19,-0.28,-1.96,1.6885
0.49,1.0,-0.45,206.46,-51.86,38.08,-25.49,-40.72,-25.78,0.98,-0.42,-1.96,1.7622
0.51,1.05,-0.68,220.86,-22.66,-7.54,-23.44,-40.43,-29.3,0.89,-0.39,-2.03,1.8359
0.27,0.68,-1.01,132.6,-27.44,-19.82,-21.97,-39.26,-31.93,0.58,-0.22,-2.17,1.9096
0.35,0.71,-1.13,49.07,-5.95,-3.39,-22.27,-38.67,-32.52,0.54,-0.26,-2.16,1.9833
0.34,0.7,-1.15,3.84,-10.6,-36.06,-22.27,-38.67,-32.81,0.53,-0.25,-2.16,2.0571
0.26,0.84,-1.25,-109.21,-37.19,-69.33,-22.56,-38.09,-31.05,0.58,-0.17,-2.21,2.1347
0.22,1.05,-1.2,-250.0,-30.4,-110.73,-24.32,-36.62,-27.25,0.71,-0.13,-2.26,2.2084
0.08,0.8,-0.89,-210.37,-52.51,-48.01,-24.61,-36.04,-23.44,0.73,-0.06,-2.28,2.2822
-0.27,1.41,-0.55,-250.0,-101.31,-91.81,-24.02,-36.04,-18.75,1.16,0.18,-2.36,2.3562
-0.2,1.23,-0.22,-250.0,-56.22,32.11,-21.97,-36.91,-13.18,1.33,0.16,-2.17,2.4296
-0.17,0.57,0.01,-250.0,-76.75,-23.0,-16.11,-38.67,-10.55,1.28,0.29,-2.21,2.5034
0.19,0.44,0.4,-247.4,-46.94,99.01,-12.3,-39.26,-8.79,0.78,-0.31,-1.73,2.5771
0.48,0.14,0.76,-174.26,-25.12,133.61,-8.79,-39.84,-8.5,0.15,-0.55,-1.74,2.6508
-0.0,0.16,0.6,-234.56,-32.12,85.63,-5.86,-40.43,-9.96,0.25,0.0,-1.77,2.7245
0.24,0.09,0.62,-202.82,16.47,127.36,-2.64,-38.09,-12.6,0.13,-0.37,-1.63,2.7983
-0.0,-0.82,0.49,-171.16,30.33,126.29,-0.88,-35.74,-14.65,-1.03,0.0,-1.24,2.872
0.01,-1.02,0.38,-110.7,27.53,84.37,-0.59,-33.4,-17.29,-1.22,-0.01,-1.13,2.9458
-0.25,-0.68,0.17,-145.58,98.79,-40.76,0.88,-32.23,-19.04,-1.15,0.35,-0.73,3.0198
-0.07,-0.82,-0.17,-143.9,13.83,-76.51,0.59,-31.35,-21.97,-1.35,0.08,-0.89,3.0932
0.04,-0.75,0.22,-205.79,91.26,11.73,0.59,-30.47,-24.61,-1.28,-0.05,-0.96,3.1669
-0.28,-0.97,-0.3,-151.6,2.37,-22.55,0.29,-31.05,-27.25,-1.17,0.27,-0.62,3.2407
-0.34,-0.88,-0.44,-147.12,53.63,-3.39,-1.76,-31.05,-31.35,-1.01,0.33,-0.53,3.3144
-0.05,-0.88,-0.66,-72.79,12.88,-23.67,-1.46,-31.35,-31.64,-0.93,0.05,-0.86,3.3883
-0.23,-0.89,-0.69,-31.35,-4.9,-32.19,-1.76,-31.64,-32.23,-0.89,0.2,-0.71,3.462
-0.13,-0.78,-0.74,-32.04,-3.45,-14.66,-1.76,-32.23,-33.11,-0.8,0.12,-0.84,3.5356
-0.06,-0.8,-0.73,-10.06,9.19,1.41,-2.05,-31.93,-33.4,-0.83,0.06,-0.88,3.6094
-0.2,-0.57,-0.79,31.37,23.58,29.58,-1.76,-31.93,-33.69,-0.61,0.2,-0.86,3.6832
-0.24,-1.31,-0.72,128.21,-14.24,72.81,-1.17,-30.76,-31.05,-1.04,0.16,-0.7,3.7569
-0.25,-1.46,-0.55,225.81,-47.2,71.02,-1.46,-30.18,-28.12,-1.18,0.16,-0.71,3.8306
0.01,-0.69,-0.28,163.33,-45.11,72.24,-0.29,-29.59,-24.61,-1.19,-0.02,-0.93,3.9045
-0.49,-1.15,-0.35,249.99,-10.36,-93.17,-0.88,-29.0,-21.97,-1.09,0.38,-0.6,3.978
-0.88,-0.48,0.17,78.7,-162.36,-74.97,-0.88,-31.05,-19.34,-0.49,1.05,0.07,4.0517
0.03,-1.11,0.15,165.83,-128.73,-198.81,0.29,-34.86,-16.11,-1.43,-0.02,-1.16,4.1256
0.14,-0.28,0.47,100.61,-0.51,-23.57,-0.88,-36.04,-13.77,-0.52,-0.25,-1.53,4.1993
0.11,-0.32,0.57,155.26,-3.16,-66.53,-2.64,-37.5,-11.43,-0.5,-0.17,-1.57,4.2731
0.23,0.09,0.6,105.75,37.36,-51.97,-5.27,-38.38,-10.25,0.14,-0.36,-1.69,4.3467
0.23,0.43,0.64,98.76,43.11,14.71,-7.62,-38.38,-9.38,0.57,-0.28,-1.71,4.4204
0.2,0.11,0.73,138.61,8.67,8.29,-11.43,-38.96,-8.5,0.15,-0.26,-1.84,4.4941
0.11,0.66,0.56,191.53,81.15,-14.54,-15.23,-38.09,-9.38,0.86,-0.12,-1.9,4.5679
-0.29,0.63,0.57,204.97,9.62,36.18,-19.92,-37.79,-11.43,0.78,0.33,-2.33,4.6416
-0.29,0.41,0.23,200.89,-26.89,-25.19,-22.27,-38.38,-13.48,0.83,0.55,-2.55,4.7192
-0.1,0.52,0.11,193.44,-44.22,-31.81,-22.56,-38.67,-14.94,1.3,0.19,-2.23,4.7929
0.12,1.3,0.04,203.8,-32.39,11.1,-24.61,-38.38,-18.75,1.47,-0.09,-1.98,4.8666
-0.1,0.43,-0.31,249.99,-35.1,36.09,-24.9,-38.09,-22.27,0.93,0.19,-2.42,4.9404
0.14,1.12,-0.56,187.28,-10.03,-3.5,-24.9,-38.09,-25.78,1.09,-0.11,-2.21,5.0141
0.09,0.81,-0.85,122.18,8.77,-82.5,-24.32,-36.62,-28.12,0.76,-0.07,-2.31,5.0878
0.25,0.92,-1.14,116.58,119.38,-43.24,-24.02,-36.04,-29.88,0.67,-0.17,-2.26,5.1615
-0.16,0.95,-0.92,82.36,24.88,-11.38,-23.14,-35.16,-31.64,0.79,0.12,-2.5,5.2353
-0.06,0.43,-1.06,64.51,-10.16,249.99,-21.09,-35.45,-32.23,0.39,0.05,-2.33,5.309
-0.09,0.77,-1.05,1.72,-29.74,-86.75,-21.97,-33.69,-33.11,0.63,0.07,-2.46,5.3827
0.02,0.56,-1.13,36.09,3.84,-21.82,-20.51,-33.11,-33.69,0.46,-0.02,-2.35,5.4565
-0.08,0.71,-1.13,-13.11,-0.75,-1.53,-20.21,-33.69,-33.98,0.56,0.06,-2.43,5.5302
-0.02,0.64,-1.09,-49.8,-5.16,-6.4,-20.8,-33.4,-32.23,0.53,0.02,-2.38,5.604
0.0,0.73,-1.05,-102.85,-0.65,17.72,-22.85,-34.28,-31.35,0.61,-0.0,-2.39,5.6776
-0.22,0.76,-1.08,-250.0,-52.81,-171.56,-24.02,-33.4,-27.54,0.6,0.17,-2.5,5.7514
-0.28,0.96,-0.75,-187.13,-39.41,-8.2,-24.61,-33.69,-24.02,0.87,0.23,-2.53,5.8251
-0.16,1.55,-0.32,-223.25,-76.52,-31.33,-24.02,-33.69,-19.92,1.34,0.1,-2.3,5.8989
-0.21,0.86,-0.24,-250.0,-68.37,-45.71,-21.68,-34.86,-16.41,1.22,0.23,-2.35,5.9726
