Ax,Ay,Az,Gx,Gy,Gz,Mx,My,MZ,Roll,Pitch,Yaw,Time
-0.49,0.69,0.62,14.92,-6.09,20.97,-19.92,-21.39,-19.63,0.72,0.48,-2.85,0.0013
-0.18,0.7,0.28,10.24,74.7,-33.94,-19.34,-20.8,-20.21,1.13,0.23,-2.67,0.0019
-0.9,0.9,0.0,-10.09,101.97,-22.5,-18.75,-19.34,-21.39,0.78,0.79,3.1,0.0025
-0.77,0.68,0.26,20.32,49.52,34.78,-18.46,-19.04,-21.68,0.7,0.81,3.06,0.0031
-0.66,0.62,0.3,-14.89,7.55,49.37,-19.92,-19.04,-22.27,0.7,0.77,3.09,0.0037
-0.29,0.78,0.23,36.75,3.91,-13.53,-19.63,-19.63,-22.56,1.13,0.34,-2.82,0.0043
-0.59,0.84,0.06,-0.62,-11.2,8.53,-19.04,-19.34,-23.14,0.95,0.61,-3.07,0.0049
-0.31,0.77,0.26,35.65,-36.2,4.52,-20.8,-19.92,-22.56,1.08,0.37,-2.85,0.0054
-0.22,0.88,-0.03,-35.27,16.77,10.31,-19.63,-19.04,-21.97,1.32,0.24,-2.73,0.006
-0.48,0.57,0.52,-0.05,-39.63,32.58,-20.51,-20.51,-22.27,0.68,0.56,-2.98,0.0065
-0.37,0.88,0.4,-21.06,1.35,-23.56,-20.21,-19.63,-21.39,1.02,0.37,-2.84,0.007
-0.41,0.78,0.47,4.14,-17.17,-23.24,-19.63,-19.34,-21.68,0.9,0.42,-2.89,0.0075
-0.45,0.69,0.21,7.6,-30.07,4.53,-19.92,-19.92,-21.09,0.95,0.56,-2.98,0.008
-0.35,0.78,0.43,14.7,-16.23,19.38,-19.92,-20.21,-21.09,0.96,0.37,-2.82,0.0085
-0.24,0.84,0.14,11.18,-8.67,17.51,-20.51,-20.51,-21.09,1.25,0.27,-2.72,0.009
-0.35,0.82,0.35,24.6,36.91,15.24,-19.34,-19.92,-21.68,1.03,0.37,-2.83,0.0095
-0.52,0.72,0.18,11.64,74.75,47.82,-21.09,-20.21,-21.97,0.92,0.61,-3.03,0.01
-0.67,0.84,0.34,42.97,-30.43,80.99,-21.09,-20.8,-22.56,0.84,0.64,-3.05,0.0105
0.02,0.79,-0.04,-12.68,84.56,2.21,-21.09,-21.39,-23.44,1.51,-0.03,-2.4,0.011
-0.51,0.86,0.18,55.65,33.39,17.37,-21.68,-20.51,-24.02,1.01,0.52,-2.99,0.0115
-0.68,0.89,0.19,25.96,-84.46,49.1,-23.14,-21.97,-23.73,0.9,0.64,-3.06,0.012
0.06,0.65,0.27,34.96,31.63,-85.67,-21.68,-21.39,-24.02,1.16,-0.08,-2.46,0.0126
-0.37,0.88,0.24,-12.23,-14.91,18.29,-22.85,-21.68,-22.85,1.1,0.39,-2.84,0.0131
-0.29,0.93,0.19,-13.07,-76.0,10.12,-21.39,-21.97,-22.85,1.21,0.3,-2.74,0.0136
-0.13,0.88,-0.19,-94.86,26.74,-25.11,-21.39,-21.97,-21.09,1.32,0.14,-2.56,0.0141
-0.46,0.87,0.35,-70.58,64.55,15.66,-20.8,-22.27,-21.09,0.99,0.46,-2.85,0.0146
-0.11,0.75,0.07,-116.33,127.8,17.94,-20.21,-20.51,-20.8,1.4,0.14,-2.56,0.0152
-1.23,0.49,1.14,-2.04,-135.12,38.8,-19.92,-20.51,-20.51,0.29,0.78,-3.14,0.0156
-0.06,0.72,0.4,-4.52,-37.94,-5.7,-19.63,-20.8,-20.21,1.06,0.08,-2.55,0.0161
-0.05,0.62,0.89,154.77,-250.0,-153.63,-19.92,-21.39,-19.04,0.61,0.04,-2.5,0.0166
-0.79,0.89,-0.11,-37.11,15.38,-24.51,-18.46,-21.68,-18.46,0.84,0.72,-3.02,0.017
-0.44,0.6,0.55,13.34,-17.23,-31.51,-17.87,-21.39,-17.87,0.7,0.49,-2.81,0.0175
-0.28,0.6,0.81,72.7,-19.79,-7.45,-18.75,-22.27,-18.16,0.61,0.27,-2.62,0.018
-0.05,0.67,0.2,-5.77,48.19,9.51,-18.75,-22.27,-18.75,1.27,0.07,-2.44,0.0184
-0.41,0.58,0.46,8.0,44.39,67.89,-19.34,-22.27,-18.16,0.75,0.51,-2.82,0.0188
-0.26,0.79,0.12,10.15,31.49,45.33,-20.8,-21.97,-19.34,1.23,0.31,-2.68,0.0193
-0.26,0.81,0.34,-45.97,47.89,17.22,-19.63,-21.68,-19.92,1.08,0.29,-2.7,0.0197
-0.11,0.74,0.23,-12.71,3.2,6.39,-20.8,-21.97,-19.63,1.24,0.14,-2.55,0.0202
-0.09,0.65,0.33,39.49,2.17,17.39,-21.39,-22.27,-19.92,1.09,0.12,-2.56,0.0206
-0.15,0.75,0.35,9.61,18.23,-4.28,-21.09,-21.97,-20.21,1.1,0.18,-2.61,0.0211
-0.1,0.8,0.15,9.69,77.58,-24.15,-21.09,-21.68,-20.8,1.35,0.12,-2.53,0.0215
-0.32,0.81,0.64,40.66,35.13,23.74,-20.8,-21.09,-21.39,0.85,0.3,-2.75,0.0219
-0.12,0.79,0.24,63.12,133.07,-27.33,-21.39,-20.21,-24.02,1.25,0.15,-2.67,0.0224
-0.76,0.96,0.41,216.4,124.27,49.84,-22.85,-19.34,-28.12,0.84,0.63,3.12,0.0228
-0.43,0.99,-0.72,140.89,249.99,55.44,-21.97,-20.51,-33.11,0.87,0.34,-2.95,0.0233
-0.32,0.91,-0.32,156.88,161.81,62.1,-20.8,-22.27,-35.45,1.11,0.32,-2.93,0.0237
0.24,0.71,-0.82,124.44,212.51,-49.32,-19.63,-24.02,-37.5,0.7,-0.22,-2.41,0.0242
0.03,0.8,-0.81,12.29,61.0,-52.89,-19.63,-24.9,-38.67,0.78,-0.03,-2.57,0.0247
0.15,0.68,-0.95,-0.31,20.86,-55.31,-18.75,-24.32,-37.5,0.61,-0.13,-2.45,0.0251
0.03,0.76,-0.9,31.65,9.84,-50.27,-17.87,-24.61,-38.67,0.7,-0.02,-2.55,0.0255
-0.04,0.75,-0.96,31.04,-5.51,-28.11,-18.16,-24.61,-38.96,0.66,0.03,-2.6,0.0259
-0.11,0.72,-0.95,14.35,-1.34,-20.4,-17.87,-23.14,-39.26,0.65,0.09,-2.68,0.0263
-0.14,0.73,-1.04,-6.63,10.33,-0.86,-17.87,-23.44,-38.38,0.61,0.11,-2.67,0.0267
-0.12,0.67,-1.05,-6.43,10.71,5.12,-18.16,-23.73,-39.84,0.57,0.09,-2.66,0.0271
-0.06,0.68,-0.91,13.98,-59.0,8.56,-18.16,-23.14,-39.55,0.64,0.05,-2.65,0.0275
-0.41,0.6,-0.99,47.96,-167.94,15.9,-17.58,-20.51,-38.38,0.51,0.34,-2.97,0.0279
-0.26,0.67,-0.99,-32.01,-65.8,4.08,-17.58,-20.21,-37.79,0.58,0.22,-2.84,0.0283
-0.21,0.67,-0.92,-38.71,-96.46,-7.35,-17.87,-19.34,-37.5,0.62,0.18,-2.83,0.0287
-0.41,0.77,-0.84,-58.82,-165.34,9.48,-18.46,-18.16,-34.57,0.69,0.35,-3.0,0.0291
0.04,0.71,-1.12,-179.59,-216.76,-61.11,-18.46,-16.41,-31.05,0.57,-0.03,-2.64,0.0295
-0.34,0.47,0.27,-172.25,-250.0,-91.25,-17.87,-17.58,-23.14,0.82,0.56,-3.07,0.0299
-0.71,0.59,0.58,-101.3,-126.39,-44.46,-15.82,-18.75,-20.8,0.57,0.71,-3.12,0.0304
-0.75,0.37,0.6,-61.58,-80.06,15.22,-15.53,-19.04,-19.34,0.37,0.82,3.1,0.0308
-0.48,0.41,0.69,24.69,-27.34,20.3,-16.41,-19.34,-18.75,0.46,0.54,-2.88,0.0312
-0.32,0.34,0.13,-92.55,62.92,16.36,-15.23,-18.75,-19.04,0.78,0.71,-3.08,0.0316
-0.87,0.31,0.29,-158.83,-250.0,96.21,-14.94,-24.32,-15.53,0.32,1.12,3.0,0.032
0.47,0.0,0.9,-158.67,214.08,29.48,-13.48,-21.68,-16.11,0.0,-0.48,-2.04,0.0324
0.1,-0.1,1.02,-33.78,-20.86,-39.51,-12.89,-22.56,-16.41,-0.1,-0.09,-2.01,0.0328
-0.25,-0.12,0.67,-7.19,-27.43,-34.21,-11.13,-21.39,-16.41,-0.16,0.35,-2.04,0.0332
-0.18,-0.02,0.77,-23.83,-62.95,-1.33,-12.01,-22.27,-15.23,-0.03,0.23,-2.13,0.0336
0.03,-0.1,0.79,32.75,-21.2,-1.32,-11.43,-24.02,-14.65,-0.12,-0.04,-1.95,0.034
0.15,-0.02,0.53,-29.04,-32.58,-2.87,-11.72,-24.61,-14.65,-0.04,-0.27,-1.96,0.0345
0.02,-0.07,0.94,25.44,-11.05,6.53,-12.3,-24.9,-14.36,-0.07,-0.02,-1.99,0.0349
-0.02,-0.01,0.69,-5.78,-39.83,8.28,-11.72,-25.2,-13.48,-0.02,0.02,-2.0,0.0353
0.11,0.06,0.75,-1.35,45.43,-4.88,-11.72,-24.9,-14.65,0.07,-0.15,-2.01,0.0357
-0.01,0.11,0.75,13.28,58.63,-28.67,-11.43,-24.32,-14.36,0.14,0.01,-2.08,0.0361
0.26,-0.02,0.7,-46.23,41.92,-34.51,-10.55,-23.44,-14.94,-0.03,-0.36,-1.94,0.0365
-0.12,-0.12,0.94,-14.95,2.02,-15.68,-10.25,-23.14,-15.53,-0.12,0.12,-1.93,0.0369
-0.19,-0.07,0.8,10.44,3.15,-26.35,-9.96,-23.73,-15.53,-0.09,0.23,-1.96,0.0373
-0.12,-0.13,0.81,5.61,-5.24,-11.44,-9.67,-23.73,-15.23,-0.15,0.14,-1.88,0.0377
-0.07,-0.13,0.72,8.29,-9.52,10.28,-10.25,-24.02,-15.23,-0.17,0.09,-1.88,0.0381
0.06,-0.06,0.74,7.9,1.03,-7.41,-10.25,-24.02,-14.94,-0.08,-0.08,-1.92,0.0385
0.05,-0.06,0.82,26.57,-48.39,-27.11,-10.55,-24.02,-14.36,-0.07,-0.06,-1.94,0.0389
-0.05,0.07,0.43,-16.33,-36.06,-3.89,-9.67,-25.2,-13.18,0.15,0.12,-2.04,0.0393
0.2,-0.16,0.92,32.52,-91.42,-61.93,-9.96,-26.37,-12.3,-0.17,-0.21,-1.87,0.0397
0.09,-0.1,0.72,21.39,-94.11,-44.55,-9.38,-28.12,-12.6,-0.14,-0.12,-1.84,0.0401
0.28,0.41,0.74,-16.71,-37.11,-8.8,-9.38,-29.3,-12.01,0.47,-0.32,-1.86,0.0405
0.43,-0.08,0.64,2.93,-16.64,-21.25,-9.67,-29.3,-11.43,-0.1,-0.59,-1.89,0.0409
0.29,-0.07,0.72,-18.71,2.77,16.46,-9.38,-29.0,-12.01,-0.09,-0.38,-1.86,0.0413
0.41,-0.07,0.7,-16.59,17.85,15.98,-9.08,-28.71,-12.89,-0.08,-0.53,-1.86,0.0417
0.31,-0.15,0.82,-16.39,29.15,17.59,-8.79,-28.12,-12.89,-0.17,-0.36,-1.83,0.0421
0.26,-0.17,0.87,18.49,35.47,19.87,-8.79,-27.25,-12.89,-0.18,-0.28,-1.83,0.0425
0.26,-0.07,0.71,0.22,29.43,17.53,-9.08,-27.54,-13.77,-0.1,-0.34,-1.85,0.0429
0.16,-0.08,0.69,-10.14,42.83,31.1,-8.79,-26.66,-13.18,-0.11,-0.22,-1.84,0.0433
0.26,-0.15,0.83,1.74,2.64,-2.84,-9.38,-26.37,-14.06,-0.17,-0.3,-1.85,0.0437
0.16,-0.15,0.78,9.36,-11.92,-16.28,-9.08,-25.78,-13.18,-0.18,-0.2,-1.83,0.0441
0.09,-0.13,0.74,5.45,12.33,6.65,-9.38,-26.37,-14.06,-0.18,-0.12,-1.83,0.0445
0.08,-0.2,0.76,-3.62,50.74,36.68,-9.67,-24.61,-13.48,-0.25,-0.1,-1.82,0.0449
0.01,-0.12,0.75,-12.81,63.8,40.92,-9.08,-24.02,-14.65,-0.16,-0.01,-1.84,0.0453
-0.03,-0.14,0.78,0.98,41.03,34.33,-10.55,-23.14,-14.94,-0.18,0.04,-1.9,0.0457
-0.01,-0.14,0.76,9.98,23.74,5.17,-10.55,-22.85,-15.23,-0.18,0.01,-1.89,0.046
-0.16,-0.12,0.65,1.29,15.14,5.49,-9.08,-22.56,-15.53,-0.18,0.23,-1.85,0.0464
-0.11,-0.12,0.73,2.66,0.39,0.6,-9.96,-22.27,-15.53,-0.16,0.15,-1.9,0.0468
-0.11,-0.14,0.77,5.68,-9.56,-8.14,-9.96,-22.85,-14.94,-0.17,0.13,-1.88,0.0472
-0.07,-0.14,0.71,4.04,-4.1,-15.48,-9.38,-23.14,-15.82,-0.2,0.1,-1.83,0.0477
-0.14,-0.13,0.72,4.2,-2.66,-4.2,-9.67,-22.56,-15.23,-0.17,0.19,-1.88,0.0481
-0.13,-0.16,0.75,3.43,-6.35,-0.88,-9.96,-22.56,-15.82,-0.2,0.16,-1.86,0.0485
-0.1,-0.13,0.75,14.95,-40.98,-6.93,-9.67,-24.02,-14.65,-0.17,0.13,-1.86,0.0489
-0.03,-0.11,0.72,6.41,-30.93,-15.61,-9.96,-24.02,-14.65,-0.15,0.05,-1.88,0.0493
-0.05,-0.12,0.73,-1.82,-12.67,-3.91,-9.38,-24.32,-14.36,-0.16,0.06,-1.85,0.0497
0.0,-0.16,0.8,-1.13,-9.67,-0.81,-10.25,-24.61,-14.65,-0.19,-0.0,-1.86,0.0501
0.08,-0.13,0.77,8.54,-20.8,-17.86,-9.96,-25.49,-14.65,-0.16,-0.1,-1.86,0.0505
0.04,-0.11,0.81,17.11,-21.87,-12.73,-9.38,-25.2,-13.77,-0.13,-0.05,-1.86,0.0509
0.09,-0.11,0.75,5.77,-11.81,-13.84,-9.67,-24.9,-13.48,-0.14,-0.11,-1.87,0.0513
0.12,-0.11,0.72,2.28,-22.7,-23.13,-9.67,-26.07,-13.77,-0.14,-0.17,-1.86,0.0517
0.13,-0.12,0.82,6.27,-35.61,-36.52,-9.08,-26.37,-14.06,-0.14,-0.15,-1.83,0.0521
0.16,-0.1,0.76,9.76,-27.24,-28.94,-9.08,-27.25,-12.89,-0.12,-0.2,-1.84,0.0525
0.12,-0.06,0.73,-0.74,-12.01,-7.68,-9.08,-27.54,-12.6,-0.09,-0.17,-1.85,0.0529
0.17,-0.11,0.75,-9.85,11.1,24.49,-8.5,-26.66,-13.18,-0.15,-0.22,-1.82,0.0533
0.19,-0.13,0.73,-12.71,24.67,35.58,-9.67,-26.37,-13.77,-0.17,-0.25,-1.85,0.0537
0.16,-0.15,0.77,-9.39,40.05,36.04,-8.79,-25.49,-13.77,-0.19,-0.2,-1.82,0.0541
0.15,-0.17,0.75,-16.2,48.68,41.68,-9.67,-24.9,-14.65,-0.22,-0.19,-1.83,0.0545
0.13,-0.2,0.84,-1.49,10.78,16.18,-9.67,-24.32,-15.23,-0.23,-0.15,-1.82,0.0549
0.06,-0.2,0.75,11.59,0.64,-0.79,-9.38,-24.32,-14.65,-0.26,-0.07,-1.79,0.0553
0.0,-0.14,0.7,0.04,1.43,2.91,-9.38,-24.02,-15.23,-0.2,0.0,-1.82,0.0557
-0.0,-0.17,0.72,-9.83,6.68,0.98,-9.67,-24.32,-14.06,-0.24,0.0,-1.82,0.0561
0.01,-0.2,0.75,0.27,3.04,3.21,-9.38,-24.02,-15.23,-0.25,-0.01,-1.79,0.0564
0.01,-0.19,0.77,12.23,-3.51,-1.19,-9.38,-24.32,-14.36,-0.24,-0.01,-1.8,0.0568
-0.01,-0.2,0.77,12.29,1.98,2.33,-9.96,-23.73,-14.65,-0.26,0.01,-1.82,0.0572
0.01,-0.16,0.69,10.12,1.9,5.51,-9.67,-24.61,-14.36,-0.23,-0.01,-1.82,0.0576
-0.01,-0.14,0.74,2.73,4.03,4.76,-10.25,-24.32,-14.65,-0.19,0.02,-1.86,0.058
0.01,-0.16,0.75,1.04,1.37,0.65,-9.96,-23.44,-14.36,-0.21,-0.02,-1.85,0.0584
-0.01,-0.15,0.73,1.94,-1.05,-1.14,-9.38,-24.02,-14.65,-0.2,0.02,-1.82,0.0588
-0.01,-0.16,0.73,-4.29,1.11,0.4,-9.67,-24.32,-15.23,-0.22,0.01,-1.82,0.0592
0.01,-0.17,0.77,2.39,-1.93,-2.88,-9.38,-24.32,-14.94,-0.22,-0.01,-1.81,0.0596
-0.02,-0.17,0.76,1.49,-3.89,-5.74,-9.67,-24.32,-15.23,-0.22,0.02,-1.82,0.0599
-0.02,-0.19,0.79,19.14,-4.15,1.4,-9.67,-24.32,-14.65,-0.23,0.03,-1.81,0.0603
-0.01,-0.08,0.58,-12.4,-6.59,-2.6,-10.55,-24.9,-14.65,-0.14,0.02,-1.9,0.0607
-0.01,-0.23,0.88,-4.86,9.08,7.2,-9.96,-23.73,-14.36,-0.25,0.01,-1.82,0.0611
0.02,-0.2,0.81,16.51,-1.15,-2.88,-9.38,-24.02,-14.94,-0.25,-0.03,-1.8,0.0615
0.15,-0.17,0.74,16.19,-17.71,-41.19,-9.67,-24.61,-14.36,-0.22,-0.2,-1.84,0.0619
-0.09,-0.12,0.64,-5.96,1.61,-8.39,-8.5,-24.32,-15.23,-0.18,0.14,-1.79,0.0623
0.0,-0.14,0.78,-3.81,17.34,14.63,-9.38,-24.61,-14.94,-0.18,-0.0,-1.83,0.0627
-0.02,-0.15,0.75,-1.7,13.29,10.69,-9.67,-24.61,-14.65,-0.2,0.02,-1.83,0.1244
0.07,-0.18,0.81,11.96,-11.48,-19.65,-9.96,-24.61,-14.94,-0.22,-0.08,-1.83,0.1982
-0.01,-0.17,0.74,14.92,-6.97,-21.6,-9.67,-24.61,-14.94,-0.22,0.01,-1.81,0.2719
-0.04,-0.15,0.7,-2.38,-4.01,-3.43,-8.79,-24.02,-14.36,-0.2,0.06,-1.8,0.3457
0.03,-0.14,0.76,2.2,-4.02,-6.41,-8.5,-24.9,-14.06,-0.18,-0.04,-1.8,0.4193
0.14,-0.16,0.79,7.84,-21.3,-37.77,-8.79,-25.49,-14.06,-0.2,-0.18,-1.81,0.493
0.06,-0.11,0.66,-8.56,-40.32,-50.64,-8.2,-25.2,-14.06,-0.17,-0.09,-1.8,0.5668
-0.07,-0.22,0.79,-24.42,-71.57,3.59,-8.2,-27.25,-14.06,-0.27,0.09,-1.71,0.6406
0.31,-0.23,0.74,-32.94,-124.27,-32.76,-7.62,-28.12,-12.89,-0.28,-0.38,-1.79,0.7143
0.61,-0.3,0.86,-23.82,-228.55,-99.75,-6.45,-32.52,-13.48,-0.28,-0.59,-1.8,0.7881
0.72,-0.21,0.48,-14.29,-157.94,-24.82,-6.45,-34.57,-13.48,-0.23,-0.94,-1.91,0.8619
1.24,-0.19,0.48,-38.05,-70.27,-95.48,-6.45,-36.62,-13.18,-0.14,-1.18,-1.95,0.9356
0.63,-0.28,0.6,33.88,-105.41,-48.05,-7.03,-38.09,-14.94,-0.32,-0.75,-1.86,1.0094
0.82,-0.09,0.13,28.93,-137.38,-1.12,-6.45,-39.84,-16.11,-0.11,-1.38,-1.99,1.0831
0.94,-0.15,-0.06,19.65,-114.75,55.4,-7.91,-39.84,-16.99,-0.16,-1.4,-2.09,1.1569
1.07,-0.11,-0.23,-19.53,-89.79,27.13,-7.32,-39.84,-18.75,-0.1,-1.33,-1.95,1.2306
1.13,-0.19,0.21,34.03,-107.54,-43.91,-8.2,-40.14,-19.92,-0.17,-1.32,-2.01,1.3044
1.2,-0.19,-0.12,11.29,-127.9,-51.61,-8.79,-41.31,-21.39,-0.15,-1.39,-2.03,1.378
0.66,-0.08,-0.44,-12.58,-220.09,-13.0,-8.2,-40.72,-24.32,-0.1,-0.98,-1.8,1.4519
1.11,-0.12,-0.68,-29.88,-214.29,-30.22,-9.67,-39.55,-28.71,-0.1,-1.02,-1.82,1.5256
0.5,0.06,-1.09,-9.85,-211.26,13.09,-8.79,-36.91,-32.52,0.05,-0.43,-1.77,1.5992
0.65,0.04,-1.27,13.12,-145.77,-30.38,-8.5,-35.45,-36.04,0.03,-0.47,-1.76,1.673
0.39,-0.03,-1.24,39.69,-111.86,-30.16,-9.08,-34.28,-36.91,-0.02,-0.3,-1.76,1.7469
0.24,-0.03,-1.38,37.5,-81.14,-19.07,-8.5,-31.93,-38.38,-0.02,-0.17,-1.77,1.8205
0.21,-0.04,-1.47,29.34,-61.0,-1.44,-7.62,-30.76,-39.55,-0.03,-0.14,-1.75,1.8943
-0.27,-0.01,-1.4,-7.31,-71.81,40.87,-8.2,-29.3,-39.84,-0.01,0.19,-1.92,1.9681
0.17,-0.03,-1.3,-3.23,-25.27,-15.59,-7.62,-28.42,-39.55,-0.03,-0.13,-1.77,2.0418
-0.07,-0.11,-1.14,0.11,-92.87,-37.64,-7.91,-27.83,-40.72,-0.09,0.06,-1.72,2.1156
-0.32,-0.12,-1.21,-14.21,-63.31,-27.68,-7.91,-25.49,-41.02,-0.1,0.25,-1.8,2.1893
-0.33,0.16,-1.0,1.5,-67.46,-26.91,-8.5,-25.49,-40.72,0.15,0.32,-2.49,2.2628
-0.51,-0.09,-1.27,-78.66,-173.65,59.91,-9.96,-21.39,-40.43,-0.07,0.38,-2.54,2.3368
-0.66,-0.04,-0.93,-40.43,-155.22,51.26,-11.13,-19.63,-39.55,-0.04,0.61,2.53,2.4106
-0.25,0.02,-0.72,-18.77,-185.07,-29.1,-10.55,-17.29,-37.79,0.02,0.34,-2.83,2.4842
-0.67,0.23,-0.84,-45.72,-117.42,-66.44,-10.55,-16.7,-37.5,0.21,0.66,2.66,2.558
-0.8,-0.01,-0.39,27.63,-24.59,-17.33,-9.38,-16.11,-36.04,-0.01,1.11,1.92,2.6316
-0.98,-0.0,-0.41,20.48,-54.27,-2.46,-9.38,-15.53,-35.74,-0.0,1.18,1.9,2.7054
-0.79,-0.09,-0.24,60.62,-67.04,-18.84,-8.2,-14.94,-34.86,-0.1,1.26,1.76,2.7791
-1.2,0.01,-0.6,-2.86,-117.1,-36.14,-8.2,-15.53,-33.69,0.01,1.11,1.92,2.8528
-0.71,0.0,-0.41,-47.72,-99.88,-14.02,-8.79,-14.94,-30.76,0.0,1.05,2.0,2.9266
-0.84,-0.12,0.26,44.35,-85.21,-19.07,-7.91,-14.94,-29.88,-0.14,1.24,1.76,3.0003
-0.93,-0.07,0.1,37.98,-69.31,30.17,-7.62,-16.11,-27.54,-0.07,1.44,1.81,3.0741
-0.56,-0.06,-0.11,-11.36,-100.19,19.5,-8.79,-15.53,-24.61,-0.11,1.35,1.88,3.1515
-0.46,-0.14,0.35,19.41,-64.72,6.17,-9.38,-16.7,-23.44,-0.24,0.88,1.88,3.2213
-0.4,-0.11,0.52,85.27,-81.76,4.55,-9.08,-17.87,-21.09,-0.17,0.65,-2.79,3.2951
-0.45,-0.01,0.75,39.38,-228.84,-49.49,-9.38,-21.09,-16.41,-0.01,0.54,-2.32,3.3727
-0.53,0.08,0.56,-28.89,-241.68,-4.87,-8.79,-24.61,-14.06,0.11,0.75,-2.52,3.4427
0.25,0.06,0.61,-14.05,-88.71,-25.04,-9.08,-26.37,-12.6,0.09,-0.38,-1.88,3.5166
0.3,-0.02,0.8,30.97,-78.53,-27.28,-9.08,-29.0,-12.01,-0.03,-0.36,-1.85,3.5941
0.26,0.03,0.74,-4.88,-121.06,0.85,-8.5,-30.76,-11.13,0.04,-0.33,-1.83,3.6638
0.5,0.01,0.68,-6.12,-101.16,-12.37,-8.79,-33.11,-10.84,0.01,-0.63,-1.83,3.7378
0.45,-0.07,0.89,140.09,-91.25,-22.44,-10.84,-35.16,-11.13,-0.07,-0.47,-1.87,3.8153
0.43,0.21,0.3,66.37,-154.05,-16.59,-12.6,-36.62,-11.72,0.39,-0.85,-1.7,3.8889
0.79,0.35,0.27,-6.36,-172.17,-50.61,-13.48,-38.38,-13.77,0.4,-1.06,-1.64,3.9627
0.6,0.38,0.37,67.73,-148.48,85.54,-14.06,-40.43,-15.53,0.5,-0.85,-1.64,4.0365
1.36,0.26,0.04,-0.68,-77.5,12.01,-12.3,-40.43,-16.41,0.19,-1.38,-1.78,4.1102
1.13,0.2,0.09,-13.97,-90.13,-20.87,-12.3,-41.02,-17.87,0.17,-1.38,-1.8,4.184
1.07,0.18,-0.08,52.4,-120.5,4.23,-12.3,-41.31,-19.92,0.17,-1.39,-1.79,4.2577
1.1,0.35,-0.57,-5.14,-67.49,-5.96,-13.77,-41.89,-21.09,0.28,-1.02,-1.73,4.3314
1.36,0.25,-0.48,-55.06,-69.85,-59.24,-14.65,-41.89,-22.85,0.17,-1.19,-1.82,4.4052
0.93,0.38,-0.24,11.19,-164.35,-38.77,-14.36,-41.02,-25.78,0.38,-1.12,-1.66,4.4789
0.95,0.32,-0.87,62.74,-132.5,-7.58,-14.06,-40.43,-29.3,0.24,-0.8,-1.8,4.5527
0.83,0.4,-0.9,13.68,-106.73,-14.18,-14.65,-38.96,-30.76,0.32,-0.7,-1.84,4.6266
0.65,0.32,-0.8,38.6,-151.13,-6.11,-14.36,-36.91,-32.23,0.3,-0.64,-1.86,4.7001
0.35,0.33,-1.05,57.01,-170.39,24.23,-12.89,-35.45,-35.16,0.29,-0.31,-1.97,4.7739
0.49,0.3,-1.21,38.3,-212.44,31.04,-12.3,-32.52,-37.79,0.23,-0.37,-1.94,4.8477
0.18,0.2,-1.21,9.11,-115.91,-1.7,-12.3,-31.64,-39.55,0.16,-0.14,-2.02,4.9213
0.09,0.18,-1.18,58.7,-166.05,21.25,-11.72,-28.12,-41.31,0.15,-0.08,-2.08,4.9951
0.03,0.18,-1.47,-24.23,-88.26,-5.29,-11.72,-25.78,-40.72,0.12,-0.02,-2.12,5.069
-0.26,0.15,-1.12,7.42,-143.05,9.1,-11.72,-22.56,-41.31,0.13,0.23,-2.51,5.1426
-0.25,0.21,-0.98,12.84,-140.65,-0.98,-12.01,-20.21,-39.84,0.21,0.24,-2.69,5.2164
-0.32,0.26,-0.82,-21.23,-112.45,-53.39,-11.43,-18.75,-39.55,0.28,0.36,-2.99,5.29
-0.92,0.09,-0.74,71.54,-147.13,30.99,-10.25,-17.58,-38.38,0.08,0.89,2.18,5.3638
-0.92,0.12,-0.58,53.76,-207.84,-2.0,-10.25,-15.82,-35.74,0.11,1.0,2.14,5.4376
-1.07,0.11,-0.65,-6.49,-125.5,48.01,-10.55,-14.36,-33.69,0.08,1.02,2.12,5.5113
-0.81,0.14,-0.18,22.52,-148.01,-15.02,-10.25,-14.65,-31.05,0.17,1.29,2.06,5.585
-0.89,0.07,-0.02,31.35,-235.4,-32.91,-9.67,-14.94,-28.42,0.08,1.49,1.96,5.6588
-0.85,0.23,-0.11,-13.61,-128.59,21.75,-9.96,-14.94,-24.32,0.26,1.29,2.24,5.7325
-0.77,0.06,0.27,-19.32,-71.59,25.95,-9.96,-15.23,-22.85,0.07,1.23,2.18,5.8062
-0.8,0.16,0.42,-3.76,-106.62,35.05,-10.25,-17.58,-21.68,0.18,1.06,2.53,5.8799
-0.6,0.19,0.37,-43.37,-191.8,-3.54,-10.55,-19.04,-18.46,0.27,0.96,2.89,5.9539
-0.25,0.07,0.92,14.39,-157.46,-18.71,-9.96,-21.97,-16.11,0.07,0.26,-2.16,6.0274
-0.29,0.11,0.94,28.78,-187.68,5.09,-10.84,-24.02,-14.06,0.11,0.3,-2.18,6.1012
0.02,0.17,0.44,6.0,-118.29,-1.61,-10.84,-26.07,-12.6,0.36,-0.05,-2.06,6.175
0.41,0.1,0.6,-22.67,-214.05,-75.78,-11.43,-30.76,-11.43,0.14,-0.59,-1.88,6.2487
0.57,-0.35,0.68,-83.68,-203.87,-40.66,-9.08,-33.98,-11.72,-0.38,-0.64,-1.92,6.3262
0.56,0.08,0.69,8.65,-155.4,-5.05,-9.38,-36.04,-12.01,0.09,-0.68,-1.8,6.3963
0.79,0.11,0.59,3.56,-115.74,-7.87,-9.67,-37.5,-13.48,0.11,-0.92,-1.79,6.4699
0.87,0.08,0.49,83.4,-58.14,8.01,-9.67,-39.26,-13.48,0.08,-1.05,-1.8,6.5436
0.75,0.01,0.36,132.19,-115.61,52.76,-12.01,-39.26,-14.36,0.01,-1.12,-1.94,6.6175
1.17,0.27,-0.18,-23.13,-145.58,-75.74,-12.89,-41.31,-17.29,0.22,-1.3,-1.74,6.695
1.13,0.33,0.08,-32.6,-143.3,-46.81,-12.89,-41.89,-19.34,0.28,-1.28,-1.66,6.7687
1.13,0.1,0.51,152.64,-58.01,10.57,-13.77,-41.6,-20.21,0.08,-1.14,-1.88,6.8424
0.89,0.34,-0.73,-7.37,-198.46,-52.96,-14.94,-41.02,-23.44,0.29,-0.84,-1.79,6.9162
0.88,0.39,-0.35,-32.39,-246.03,-32.04,-14.94,-40.14,-26.95,0.39,-1.03,-1.71,6.9899
1.77,0.55,-1.04,75.2,-98.9,-6.58,-14.06,-39.26,-28.71,0.26,-0.99,-1.77,7.0636
0.57,0.33,-0.51,84.27,-98.2,-6.55,-14.36,-39.26,-31.64,0.41,-0.75,-1.8,7.1373
0.73,0.35,-1.17,48.71,-158.17,13.16,-13.48,-37.21,-33.4,0.25,-0.54,-1.87,7.2112
0.66,0.13,-1.14,38.51,-113.27,12.15,-12.89,-34.86,-35.16,0.1,-0.52,-1.86,7.2848
0.71,0.13,-1.64,-99.74,-154.85,-4.12,-14.65,-33.4,-36.04,0.07,-0.41,-1.91,7.3587
0.12,0.25,-0.8,8.81,-108.66,24.48,-14.06,-31.05,-38.09,0.3,-0.14,-2.14,7.4323
0.45,0.32,-1.21,48.19,-87.2,-6.65,-13.48,-30.47,-38.67,0.24,-0.34,-2.0,7.5062
-0.1,0.23,-1.24,18.85,-103.1,17.65,-12.89,-29.0,-39.84,0.19,0.08,-2.24,7.5798
-0.03,0.18,-1.16,44.94,-119.65,4.14,-12.89,-26.95,-40.43,0.16,0.02,-2.21,7.6535
-0.3,0.16,-1.18,39.71,-146.19,25.48,-11.72,-24.9,-41.02,0.13,0.25,-2.47,7.7274
-0.18,0.23,-1.11,36.76,-138.2,0.43,-11.43,-22.27,-40.72,0.2,0.15,-2.47,7.801
-0.51,0.1,-1.35,10.22,-68.81,7.18,-10.55,-21.09,-40.14,0.07,0.36,-2.75,7.8748
-0.29,0.19,-1.02,0.43,-33.57,-13.94,-10.84,-20.21,-39.84,0.18,0.27,-2.7,7.9485
-0.56,-0.0,-0.61,27.92,-46.52,-54.88,-10.55,-20.8,-39.55,-0.0,0.74,2.3,8.0223
-0.8,0.08,-1.13,22.69,-75.83,53.42,-10.25,-19.04,-39.84,0.06,0.62,2.61,8.096
-0.54,-0.19,-0.88,10.8,-103.74,41.18,-10.84,-17.87,-39.26,-0.18,0.54,2.08,8.1698
-0.81,0.43,-0.49,11.76,-100.4,58.74,-10.84,-16.41,-37.79,0.43,0.89,2.49,8.2435
-0.84,0.15,-0.84,-9.48,-183.2,62.69,-12.6,-15.53,-35.45,0.13,0.78,2.46,8.3172
-0.64,0.22,-0.59,-34.88,-196.33,10.5,-13.18,-14.36,-31.35,0.25,0.79,2.61,8.391
-0.89,0.69,-0.3,-125.28,-185.01,-38.38,-12.01,-14.06,-28.12,0.63,0.87,2.71,8.4647
-0.71,0.23,0.41,-39.94,-170.96,8.71,-12.3,-15.23,-24.61,0.28,0.99,2.58,8.5384
-0.81,0.15,0.5,-7.48,-92.58,39.14,-13.18,-16.41,-23.73,0.16,1.0,2.56,8.6125
-0.85,0.27,0.48,21.27,-111.56,61.93,-14.65,-17.29,-20.8,0.26,1.0,2.77,8.6859
-0.49,0.29,0.27,-39.99,-178.17,6.94,-13.77,-19.63,-18.46,0.48,0.89,3.06,8.7597
-0.31,0.29,0.53,6.84,-128.48,23.22,-14.94,-21.09,-14.94,0.44,0.48,-2.67,8.8335
0.18,0.17,0.32,-109.09,-143.34,-19.01,-12.89,-24.61,-13.77,0.43,-0.47,-1.98,8.9072
0.27,0.08,0.94,16.92,-69.89,-38.12,-12.89,-25.49,-12.6,0.09,-0.28,-2.01,8.981
0.22,0.03,0.92,21.95,-180.54,-89.37,-12.6,-27.83,-12.3,0.03,-0.23,-1.97,9.0549
0.18,0.1,0.74,1.94,-148.12,-32.54,-12.3,-30.76,-11.13,0.13,-0.23,-1.94,9.1284
0.52,0.31,0.49,-33.55,-182.85,-23.74,-12.3,-34.57,-11.13,0.41,-0.73,-1.73,9.2021
0.44,0.06,0.68,9.87,-128.92,41.92,-12.01,-35.74,-12.01,0.07,-0.57,-1.87,9.2759
1.08,0.04,0.49,72.33,-112.95,-67.56,-14.36,-37.79,-12.6,0.04,-1.14,-2.02,9.3496
0.77,0.43,0.15,35.45,-104.89,-68.21,-14.36,-38.38,-14.36,0.51,-1.03,-1.58,9.4233
0.75,0.38,0.14,-15.85,-128.93,-5.52,-14.94,-39.55,-15.23,0.46,-1.07,-1.6,9.501
0.8,0.21,0.21,-18.75,-125.99,15.46,-14.36,-40.14,-16.41,0.25,-1.21,-1.78,9.5747
1.14,0.29,-0.11,-25.79,-120.81,-13.23,-14.36,-41.02,-18.16,0.25,-1.31,-1.76,9.6484
0.99,0.25,-0.34,0.27,-124.32,18.06,-14.36,-41.02,-20.21,0.24,-1.17,-1.77,9.7221
1.21,0.28,-0.73,-28.95,-53.05,35.54,-14.06,-41.89,-22.27,0.2,-1.0,-1.79,9.7959
1.45,0.48,-0.32,11.69,-177.02,14.98,-12.89,-40.72,-24.02,0.32,-1.19,-1.66,9.8696
0.57,0.28,-0.47,43.62,-203.78,74.35,-12.89,-39.84,-28.71,0.36,-0.81,-1.75,9.9434
0.61,0.1,-1.08,42.17,-159.84,83.21,-10.55,-38.96,-31.64,0.08,-0.52,-1.79,10.0171
0.8,-0.18,-1.05,45.57,-234.55,37.08,-9.96,-36.62,-34.28,-0.13,-0.64,-1.75,10.0909
0.57,-0.14,-1.05,60.3,-237.17,44.78,-8.2,-32.81,-36.91,-0.11,-0.49,-1.7,10.1647
0.21,-0.13,-1.42,21.17,-230.22,59.06,-7.32,-28.71,-39.84,-0.09,-0.15,-1.69,10.2384
-0.24,-0.17,-1.06,32.8,-204.93,55.98,-6.74,-25.49,-40.43,-0.15,0.22,-1.56,10.3121
-0.46,-0.15,-1.04,24.72,-150.84,63.48,-6.15,-22.56,-40.72,-0.14,0.41,-1.54,10.3858
0.04,0.01,-1.66,-81.76,-126.56,-36.49,-7.03,-20.51,-40.72,0.01,-0.02,-1.9,10.4596
-0.58,-0.09,-0.65,-78.88,-86.06,-38.52,-8.2,-19.92,-40.14,-0.11,0.72,1.86,10.5333
-0.96,-0.09,-0.59,31.45,-130.74,25.09,-7.32,-17.58,-39.26,-0.08,1.01,1.76,10.607
-0.78,0.03,-0.67,77.89,-149.15,85.15,-8.5,-15.53,-36.04,0.03,0.86,2.07,10.6807
-0.68,0.13,-0.65,20.02,-171.31,43.48,-9.67,-14.65,-33.69,0.14,0.8,2.36,10.7544
-0.93,-0.03,-0.56,-68.04,-155.61,44.75,-10.55,-14.06,-31.05,-0.03,1.03,2.04,10.8282
-0.55,0.08,-0.39,-126.75,-62.89,-32.31,-9.96,-14.06,-29.88,0.11,0.94,2.26,10.902
-1.11,-0.03,0.35,-20.56,-189.66,112.54,-12.3,-13.48,-27.54,-0.02,1.26,2.06,10.9758
-0.5,0.11,0.14,18.92,-72.62,-2.87,-12.6,-15.23,-26.07,0.2,1.23,2.28,11.0496
-0.85,0.21,0.42,-36.56,-28.54,4.17,-12.3,-15.53,-24.9,0.22,1.07,2.46,11.1232
-0.69,0.2,0.24,-77.43,-16.27,66.84,-12.89,-16.11,-23.73,0.27,1.14,2.48,11.197
-0.49,0.22,0.65,-29.9,-126.91,-37.62,-12.6,-16.99,-21.68,0.26,0.63,-3.09,11.2709
-0.39,-0.03,0.53,-30.04,-6.0,-73.96,-10.25,-16.99,-21.09,-0.05,0.63,-2.98,11.3444
-0.71,0.1,0.72,30.59,-87.8,32.41,-10.55,-17.58,-19.63,0.1,0.77,3.06,11.4181
-0.63,0.2,0.5,-26.54,-219.41,-30.08,-10.84,-20.8,-15.82,0.24,0.86,-3.05,11.4922
-0.31,-0.07,0.9,-17.03,-201.01,13.51,-11.13,-24.02,-14.36,-0.08,0.34,-2.06,11.5657
0.1,-0.19,0.95,37.14,-130.12,-16.5,-11.13,-26.37,-12.3,-0.19,-0.11,-1.89,11.6395
0.32,0.03,0.59,-2.85,-94.62,-28.83,-11.13,-28.12,-12.3,0.05,-0.49,-1.92,11.7132
0.22,-0.28,0.97,-5.96,-185.88,-106.45,-10.84,-32.23,-11.13,-0.28,-0.22,-1.84,11.7908
0.47,0.05,0.5,9.16,-74.0,-70.37,-10.25,-34.28,-10.55,0.07,-0.75,-1.85,11.8605
0.79,0.25,0.5,-49.26,-142.07,-19.89,-9.38,-35.74,-11.72,0.27,-0.95,-1.68,11.9343
0.46,0.13,0.7,-16.94,-108.68,48.51,-9.08,-37.21,-13.48,0.15,-0.57,-1.77,12.0081
1.26,-0.13,0.34,51.89,-119.97,-9.93,-9.38,-38.67,-14.65,-0.1,-1.29,-2.04,12.0818
1.47,-0.01,-0.04,-102.75,-103.49,-179.47,-11.13,-40.43,-14.94,-0.01,-1.54,-2.19,12.1595
0.77,0.28,0.01,-118.9,-131.76,-62.64,-11.43,-42.19,-17.58,0.35,-1.22,-1.55,12.2332
0.88,0.23,0.39,37.24,-131.64,50.49,-10.55,-42.19,-19.34,0.24,-1.09,-1.67,12.3069
1.36,-0.12,-0.24,61.55,-143.62,-73.6,-10.25,-42.19,-21.68,-0.09,-1.37,-2.0,12.3808
0.96,0.19,-0.57,-19.42,-90.97,-39.8,-11.72,-42.48,-24.02,0.17,-1.01,-1.75,12.4544
1.08,0.16,-0.11,88.28,-139.72,-40.61,-12.89,-41.02,-26.07,0.15,-1.39,-1.79,12.5283
0.82,0.38,-0.94,46.81,-133.65,-43.74,-12.89,-39.84,-28.42,0.29,-0.68,-1.8,12.6019
1.02,0.25,-0.85,41.28,-224.0,20.97,-12.6,-38.67,-31.64,0.19,-0.85,-1.79,12.6757
0.68,0.2,-1.41,17.59,-120.06,45.2,-12.01,-36.62,-34.86,0.13,-0.44,-1.85,12.7494
0.52,0.17,-1.13,23.74,-185.24,70.04,-9.96,-33.11,-36.91,0.13,-0.43,-1.84,12.8231
0.61,0.1,-1.68,-22.43,-205.55,6.23,-10.25,-29.59,-39.26,0.05,-0.34,-1.85,12.8968
0.09,0.09,-1.11,-2.06,-163.47,4.54,-10.55,-26.95,-40.72,0.09,-0.08,-2.0,12.9706
-0.37,0.17,-1.12,10.19,-196.66,57.33,-10.84,-22.56,-40.43,0.15,0.32,-2.67,13.0444
-0.09,0.22,-1.41,14.44,-131.53,40.08,-10.84,-20.51,-40.72,0.16,0.06,-2.34,13.1181
-0.36,0.19,-1.21,-58.11,-87.2,-26.8,-11.43,-19.34,-39.55,0.15,0.28,-2.74,13.1918
-0.54,0.21,-0.81,-47.09,-59.52,4.93,-12.3,-18.16,-38.96,0.22,0.58,2.86,13.2655
-0.7,0.33,-0.72,14.16,-80.03,8.03,-11.43,-17.29,-38.38,0.32,0.72,2.65,13.3393
-0.75,0.26,-0.71,52.31,-50.81,20.66,-11.72,-16.41,-38.09,0.24,0.78,2.51,13.413
-0.77,0.31,-0.75,17.14,-66.96,-25.64,-12.3,-16.41,-36.91,0.28,0.76,2.6,13.4868
-0.79,0.15,-0.54,-52.57,-100.59,27.71,-12.3,-14.94,-35.74,0.15,0.96,2.27,13.5605
-0.61,0.28,-0.41,9.32,-109.42,-36.14,-12.3,-14.94,-34.28,0.36,0.89,2.51,13.6343
-0.74,0.27,-0.49,-26.94,-100.31,-90.46,-11.43,-14.65,-32.23,0.3,0.93,2.44,13.708
-0.91,0.39,-0.35,-61.9,-95.46,-22.86,-10.84,-14.65,-30.47,0.38,1.05,2.39,13.7817
-0.65,0.24,-0.2,-11.99,-120.83,-15.09,-11.13,-15.53,-28.42,0.34,1.12,2.37,13.8556
-0.88,0.14,0.04,-33.33,-120.23,2.59,-10.84,-14.94,-26.37,0.16,1.41,2.1,13.9292
-0.88,0.13,0.05,-20.59,-132.61,55.79,-11.13,-16.11,-23.44,0.15,1.41,2.16,14.003
-0.9,0.2,0.39,-1.57,-49.19,57.42,-12.01,-16.7,-21.68,0.2,1.12,2.51,14.0767
-0.61,0.05,0.32,-42.49,-194.33,9.8,-12.01,-19.63,-18.16,0.07,1.09,2.67,14.1504
-0.42,0.18,0.94,56.08,-92.15,-5.41,-12.6,-21.09,-16.11,0.17,0.42,-2.48,14.2241
-0.09,0.22,0.4,0.02,-167.39,-39.62,-12.6,-24.02,-14.36,0.49,0.2,-2.34,14.2979
0.31,0.09,0.32,-37.02,-215.7,-17.62,-11.72,-27.54,-12.89,0.2,-0.76,-1.89,14.3716
0.35,0.13,0.7,-63.21,-145.01,-19.07,-11.13,-29.3,-11.13,0.17,-0.46,-1.9,14.4493
0.4,0.12,0.94,-32.94,-176.03,-35.16,-10.25,-32.23,-11.13,0.12,-0.4,-1.85,14.523
0.49,0.11,0.64,-26.44,-139.55,-27.37,-9.96,-34.86,-11.72,0.13,-0.64,-1.81,14.5967
0.46,0.17,0.38,58.45,-122.93,32.39,-10.55,-36.04,-12.3,0.28,-0.83,-1.72,14.6666
1.17,-0.08,0.22,-6.17,-136.25,-70.34,-12.3,-38.09,-13.48,-0.07,-1.37,-2.18,14.7444
0.95,0.42,0.3,-57.42,-41.29,-46.78,-12.01,-39.55,-13.77,0.4,-1.07,-1.58,14.818
0.7,0.08,0.75,67.62,-108.12,33.65,-11.43,-39.55,-15.53,0.08,-0.75,-1.82,14.8918
1.19,0.22,-0.13,18.47,-79.36,-43.56,-12.3,-40.14,-15.53,0.19,-1.36,-1.8,14.9655
1.13,0.3,0.08,7.94,-85.57,13.46,-12.6,-40.43,-17.58,0.26,-1.3,-1.69,15.0391
1.33,0.12,-0.28,-38.67,-116.24,-18.49,-11.72,-41.6,-19.04,0.09,-1.35,-1.86,15.1131
1.09,0.25,-0.11,3.0,-108.12,21.34,-12.3,-41.31,-20.8,0.22,-1.33,-1.71,15.1867
1.32,0.1,-0.26,81.23,-209.92,-11.96,-12.3,-40.43,-25.2,0.07,-1.36,-1.86,15.2607
1.08,0.08,-0.71,76.03,-200.79,-21.35,-12.3,-39.55,-28.71,0.06,-0.99,-1.81,15.3342
0.65,0.18,-1.19,-11.94,-250.0,15.75,-11.43,-36.91,-32.81,0.13,-0.5,-1.83,15.408
0.38,0.03,-1.11,-52.22,-250.0,30.65,-11.72,-31.64,-38.67,0.02,-0.33,-1.85,15.4818
0.27,0.16,-0.99,44.25,-250.0,16.17,-11.13,-27.83,-40.43,0.15,-0.26,-1.97,15.5554
-0.22,0.12,-1.33,34.07,-248.63,-25.99,-10.55,-24.61,-41.02,0.09,0.16,-2.26,15.6292
-0.77,0.04,-1.33,-2.38,-250.0,35.6,-10.84,-20.21,-40.14,0.02,0.53,2.92,15.7029
-0.35,0.19,-1.25,-81.91,-234.05,3.7,-12.6,-16.99,-38.09,0.15,0.27,-2.81,15.7767
-0.77,0.3,-0.28,-22.36,-170.82,-4.32,-12.6,-16.11,-34.57,0.36,1.07,2.35,15.8503
-1.26,0.23,-0.41,35.35,-80.87,17.75,-12.3,-14.94,-33.11,0.18,1.21,2.14,15.9242
-0.78,0.23,-0.17,19.78,43.35,27.06,-12.01,-14.65,-32.52,0.28,1.23,2.19,15.9979
-0.97,0.3,-0.14,25.59,-40.12,14.92,-12.6,-14.65,-31.93,0.3,1.24,2.21,16.0716
-0.78,0.33,-0.26,13.08,-109.65,-21.22,-12.89,-14.06,-31.05,0.38,1.08,2.38,16.1457
-0.62,0.28,-0.21,-15.97,-123.15,-68.04,-11.13,-14.65,-29.59,0.4,1.05,2.42,16.2191
-1.02,0.07,0.13,78.71,-182.48,111.16,-12.6,-14.36,-25.49,0.06,1.43,2.1,16.2928
-0.76,0.33,0.33,56.19,-250.0,42.87,-14.06,-17.87,-20.21,0.38,1.01,2.81,16.3666
-0.57,0.68,-0.16,-13.38,-114.78,93.34,-15.82,-21.68,-16.11,0.85,0.68,-2.93,16.4404
-0.18,0.42,0.49,-52.64,-37.02,92.3,-16.11,-22.56,-14.65,0.68,0.26,-2.52,16.5141
0.37,0.48,0.71,-11.8,-19.71,-65.23,-14.94,-22.56,-15.23,0.54,-0.41,-2.09,16.5878
-0.31,0.34,0.78,-15.9,-15.9,-49.41,-14.94,-23.14,-14.65,0.38,0.34,-2.49,16.6616
-0.37,0.31,1.03,24.0,-210.72,9.63,-14.36,-25.78,-12.01,0.28,0.33,-2.33,16.7353
-0.19,0.53,0.5,-51.91,-250.0,97.65,-13.18,-31.05,-12.01,0.78,0.26,-2.28,16.8092
1.02,0.13,0.32,-141.97,-250.0,-2.01,-12.3,-36.04,-11.72,0.12,-1.24,-1.93,16.8866
0.76,0.13,0.28,-80.16,-224.87,9.09,-10.55,-38.67,-13.18,0.15,-1.19,-1.78,16.9566
0.96,0.15,0.07,-95.01,-197.1,-11.17,-9.67,-41.31,-16.7,0.15,-1.41,-1.74,17.0303
1.45,-0.05,0.57,8.77,-119.76,-45.87,-9.08,-41.31,-19.04,-0.03,-1.2,-1.87,17.1079
0.94,0.0,0.03,100.71,-72.85,-48.77,-11.72,-41.6,-19.63,0.0,-1.54,-2.08,17.1816
1.04,0.06,-0.36,4.46,-250.0,-104.78,-12.6,-41.31,-22.85,0.06,-1.23,-1.87,17.2555
0.7,0.47,-0.73,-119.2,-250.0,-93.41,-15.23,-40.43,-28.12,0.44,-0.68,-1.82,17.3291
0.72,0.48,-0.68,-46.18,-248.3,-95.46,-16.41,-36.91,-31.93,0.45,-0.71,-1.87,17.4029
0.61,0.5,-0.57,59.68,-105.68,4.28,-16.7,-36.33,-33.98,0.54,-0.68,-1.88,17.4765
0.21,0.47,-1.0,101.87,-103.72,73.39,-14.36,-35.45,-35.45,0.43,-0.19,-2.11,17.5503
0.96,0.34,-1.55,42.92,-56.21,-25.02,-13.77,-34.57,-36.62,0.19,-0.55,-1.89,17.624
-0.06,0.94,-1.23,-23.66,-87.7,-15.24,-14.36,-32.52,-38.09,0.65,0.04,-2.42,17.6979
0.25,0.36,-1.15,11.04,-250.0,-51.2,-15.53,-27.25,-40.43,0.3,-0.21,-2.19,17.7715
-0.48,0.34,-1.0,68.94,-250.0,-22.7,-13.48,-20.51,-40.43,0.29,0.42,-3.06,17.8453
-0.68,0.31,-0.83,-39.21,-207.44,-31.76,-14.65,-18.46,-38.96,0.28,0.66,2.8,17.919
-0.71,0.47,-0.89,12.73,-250.0,-38.69,-13.18,-15.82,-34.86,0.39,0.61,2.88,17.9927
-0.76,0.28,-0.42,-40.72,-250.0,-64.69,-13.18,-14.94,-30.18,0.32,0.98,2.48,18.0664
-0.3,0.26,-0.28,-0.36,-160.74,-57.27,-12.3,-15.23,-25.49,0.56,0.67,2.99,18.1402
-1.22,0.33,0.12,-24.8,-77.79,16.88,-12.6,-16.11,-24.32,0.27,1.29,2.33,18.214
-0.5,0.1,0.37,-14.72,-73.37,16.01,-12.6,-15.82,-22.85,0.16,0.92,2.67,18.2877
-0.65,0.14,0.55,-4.04,-65.01,10.08,-12.6,-16.99,-21.68,0.16,0.85,2.84,18.3614
-0.55,0.2,0.53,19.83,-41.04,-3.82,-12.6,-17.29,-21.09,0.25,0.77,3.02,18.4351
-0.49,0.24,0.56,38.58,-38.67,-12.6,-13.18,-18.16,-19.04,0.31,0.68,-3.04,18.5088
